AccX,AccY,AccZ,GyroX,GyroY,GyroZ
8288.0,13912.0,-8292.0,-5355.0,8237.0,6663.0
5664.0,10076.0,-1444.0,-8630.0,12393.0,4423.0
1460.0,13416.0,6388.0,-19570.0,14422.0,2370.0
-952.0,13112.0,20472.0,-31964.0,13100.0,2187.0
-3200.0,6984.0,22092.0,-32768.0,9543.0,4904.0
-3812.0,-8556.0,32767.0,-16546.0,3521.0,2380.0
968.0,-14388.0,31512.0,14228.0,-5407.0,-2492.0
2060.0,-5668.0,17168.0,32767.0,-13556.0,-4524.0
-6216.0,13392.0,5980.0,32767.0,-14419.0,-5576.0
-8296.0,23388.0,4312.0,30196.0,-11073.0,-4919.0
1212.0,22312.0,-2792.0,21853.0,-8632.0,-3188.0
7468.0,22676.0,-9888.0,12329.0,-1018.0,679.0
12412.0,20388.0,-12316.0,-5138.0,10529.0,4480.0
7856.0,12240.0,-6276.0,-17753.0,17628.0,2985.0
892.0,11004.0,5076.0,-26492.0,19711.0,1435.0
-2780.0,12700.0,25216.0,-32768.0,12686.0,1327.0
-3948.0,2676.0,32632.0,-32768.0,12408.0,4992.0
-4092.0,-19828.0,32767.0,-11889.0,6258.0,78.0
-960.0,-18320.0,29268.0,26684.0,-7248.0,-6782.0
-1040.0,1344.0,15176.0,32767.0,-14353.0,-6531.0
-9980.0,20324.0,4532.0,32767.0,-13118.0,-7097.0
-7228.0,27932.0,812.0,19648.0,-9598.0,-4664.0
3772.0,21260.0,-7180.0,14225.0,-3574.0,-1701.0
7284.0,23056.0,-11916.0,574.0,4487.0,3662.0
6708.0,18652.0,-8532.0,-15994.0,14625.0,5281.0
2348.0,10624.0,-2932.0,-27456.0,20085.0,3163.0
-4128.0,11536.0,19212.0,-32768.0,15242.0,3627.0
-2600.0,5516.0,32767.0,-32768.0,13916.0,5199.0
-2904.0,-15280.0,32767.0,-17686.0,8063.0,3425.0
80.0,-20980.0,32767.0,14903.0,-6224.0,-4862.0
-112.0,-5924.0,20628.0,32767.0,-14401.0,-8042.0
-7276.0,12900.0,7932.0,32767.0,-12972.0,-6427.0
-8928.0,23368.0,5156.0,32767.0,-11335.0,-3646.0
1876.0,22944.0,-4296.0,18331.0,-5206.0,-1369.0
2656.0,21884.0,-6396.0,10012.0,-264.0,1754.0
6436.0,19664.0,-8992.0,-8879.0,10024.0,4532.0
4024.0,13088.0,-4572.0,-22037.0,15461.0,3586.0
-672.0,11656.0,8212.0,-32573.0,16183.0,2754.0
-816.0,12452.0,7724.0,-32768.0,14130.0,4276.0
-2128.0,-3812.0,32767.0,-30704.0,10719.0,4530.0
-3128.0,-21140.0,32767.0,-4762.0,3152.0,-258.0
-556.0,-14784.0,26588.0,26252.0,-8549.0,-6930.0
-3604.0,2804.0,14760.0,32767.0,-12407.0,-6563.0
-7464.0,15896.0,8020.0,32767.0,-10597.0,-5712.0
-4840.0,21480.0,4512.0,28179.0,-8807.0,-3812.0
2876.0,20028.0,-4396.0,20524.0,-3526.0,-1922.0
4356.0,22888.0,-6840.0,10997.0,796.0,1573.0
6352.0,21788.0,-6184.0,-9894.0,11153.0,4267.0
2432.0,16520.0,-212.0,-25773.0,14332.0,2528.0
-1076.0,14952.0,12548.0,-32768.0,14039.0,2859.0
-720.0,5268.0,21592.0,-32768.0,15127.0,5870.0
-5660.0,-13312.0,32767.0,-16164.0,8023.0,7450.0
-3008.0,-24236.0,32767.0,10795.0,-3359.0,-2320.0
1164.0,-8684.0,20448.0,32767.0,-10738.0,-7016.0
-4336.0,5268.0,9916.0,32767.0,-12094.0,-7013.0
-10300.0,21912.0,5692.0,32767.0,-11047.0,-4778.0
-3472.0,25524.0,1504.0,25004.0,-9495.0,-1145.0
4300.0,20844.0,-6156.0,14737.0,-3253.0,-1656.0
5280.0,20236.0,-8876.0,2928.0,2512.0,2960.0
6356.0,17336.0,-6400.0,-12684.0,12107.0,6125.0
2192.0,12872.0,-4.0,-24822.0,15870.0,2072.0
-2100.0,15416.0,19036.0,-32768.0,12495.0,1703.0
-1792.0,5132.0,27960.0,-32768.0,12532.0,3319.0
-3696.0,-10688.0,32767.0,-20757.0,8045.0,4422.0
-2112.0,-19136.0,31232.0,8423.0,-2855.0,-2765.0
244.0,-4560.0,18836.0,30408.0,-10217.0,-5342.0
-5112.0,8160.0,11056.0,32767.0,-10191.0,-6204.0
-7516.0,20288.0,5684.0,32024.0,-7448.0,-5448.0
-1224.0,22928.0,-516.0,21319.0,-4397.0,-2156.0
2688.0,23316.0,-2840.0,12173.0,1188.0,672.0
4480.0,21372.0,-5104.0,-6393.0,8305.0,5518.0
2876.0,14980.0,-1096.0,-20143.0,13173.0,4140.0
-584.0,14684.0,9052.0,-32768.0,13686.0,3664.0
-640.0,8320.0,12784.0,-32768.0,12412.0,4903.0
-3848.0,-5848.0,32112.0,-22582.0,9812.0,5654.0
-3424.0,-21184.0,32767.0,1660.0,253.0,323.0
1212.0,-11104.0,24824.0,26240.0,-9076.0,-5832.0
-2116.0,1744.0,13820.0,32767.0,-11955.0,-7260.0
-7732.0,16476.0,8040.0,32767.0,-9985.0,-6968.0
-6492.0,23928.0,3720.0,27333.0,-9351.0,-2754.0
1804.0,21860.0,-2904.0,14073.0,-3321.0,-1866.0
2280.0,20516.0,-3584.0,4195.0,892.0,1454.0
4560.0,17316.0,-4440.0,-11029.0,8584.0,5551.0
2224.0,12280.0,1340.0,-19167.0,12646.0,3422.0
-1760.0,14188.0,15636.0,-32768.0,10308.0,2051.0
-1344.0,6424.0,26220.0,-29512.0,9745.0,3061.0
-2072.0,-4344.0,31940.0,-15571.0,5775.0,4003.0
-1264.0,-13520.0,30004.0,4911.0,-2662.0,-1124.0
1440.0,-4404.0,19392.0,24574.0,-8853.0,-4896.0
-1556.0,6968.0,10688.0,32095.0,-9600.0,-4982.0
-4184.0,18468.0,5872.0,31025.0,-7110.0,-4534.0
-1656.0,23472.0,1292.0,19676.0,-3564.0,-2187.0
2180.0,22212.0,-2480.0,8985.0,2922.0,-257.0
2648.0,20592.0,-4116.0,-5197.0,7127.0,5114.0
1784.0,18116.0,-1728.0,-21330.0,13777.0,4504.0
-1532.0,12900.0,5780.0,-32101.0,15811.0,5597.0
-2940.0,6736.0,11456.0,-32768.0,15045.0,6553.0
-6216.0,-2636.0,31196.0,-18545.0,10812.0,7346.0
-4052.0,-15076.0,32767.0,-917.0,3175.0,4324.0
664.0,-13128.0,28320.0,19034.0,-6028.0,-3589.0
-676.0,-500.0,16620.0,32767.0,-10594.0,-4232.0
-3944.0,15020.0,7688.0,32767.0,-8554.0,-3020.0
-4196.0,23204.0,-320.0,32767.0,-5524.0,943.0
2100.0,22960.0,-3624.0,21265.0,9.0,1008.0
3416.0,19632.0,-7004.0,3199.0,4746.0,3608.0
4024.0,15440.0,-5676.0,-13820.0,11990.0,4437.0
660.0,12176.0,1924.0,-23645.0,15084.0,1684.0
-2828.0,14376.0,11484.0,-32768.0,11093.0,1999.0
-4852.0,5876.0,27500.0,-29542.0,8817.0,3502.0
-3484.0,-5732.0,32767.0,-16225.0,4732.0,3331.0
-1576.0,-16460.0,29196.0,9213.0,-4001.0,-3173.0
-1256.0,-3088.0,18024.0,30306.0,-10727.0,-5661.0
-5080.0,11224.0,10908.0,32767.0,-11554.0,-6666.0
-6152.0,22412.0,6084.0,22840.0,-9988.0,-4791.0
-952.0,19116.0,-908.0,11493.0,-5172.0,-4399.0
2684.0,18884.0,-4616.0,9750.0,-361.0,-2201.0
3792.0,22888.0,-7832.0,-6908.0,6036.0,1908.0
2484.0,15524.0,-1796.0,-23004.0,12995.0,1917.0
-1952.0,10928.0,15268.0,-32768.0,11935.0,-1034.0
-3328.0,5936.0,31632.0,-21802.0,10149.0,2193.0
-4868.0,-6040.0,32767.0,-6838.0,4485.0,3717.0
-1308.0,-13580.0,29884.0,12302.0,-4926.0,-3156.0
348.0,-896.0,17980.0,29866.0,-9916.0,-4629.0
-4660.0,13316.0,10680.0,32767.0,-11089.0,-2582.0
-6928.0,23576.0,5768.0,25677.0,-9758.0,309.0
-2424.0,18928.0,848.0,12741.0,-6861.0,197.0
2516.0,16060.0,-5612.0,12209.0,-2094.0,-68.0
4796.0,17292.0,-8052.0,3274.0,3726.0,4206.0
5108.0,15760.0,-3568.0,-10248.0,12131.0,4502.0
1460.0,12976.0,5460.0,-19606.0,15635.0,66.0
-976.0,11348.0,17548.0,-18318.0,15940.0,-960.0
-5036.0,2384.0,31344.0,-6109.0,11349.0,3656.0
-3688.0,-4252.0,31400.0,11776.0,4748.0,2281.0
-760.0,2768.0,22984.0,26033.0,-3145.0,643.0
-172.0,12588.0,13240.0,29551.0,-6797.0,2366.0
-4364.0,22440.0,7072.0,23327.0,-7715.0,3880.0
-6360.0,15912.0,5372.0,10232.0,-9128.0,-1642.0
-1436.0,15764.0,-508.0,5718.0,-8337.0,-672.0
2424.0,14316.0,-7036.0,8072.0,-2425.0,921.0
4868.0,16796.0,-9796.0,909.0,5334.0,1550.0
3716.0,16676.0,-3928.0,-10289.0,11867.0,3133.0
144.0,17524.0,7336.0,-29219.0,12589.0,-2249.0
-1648.0,17336.0,21048.0,-32768.0,10879.0,-1130.0
-3404.0,1180.0,27796.0,-32768.0,7715.0,3661.0
-3132.0,-12876.0,31988.0,-4715.0,1200.0,-954.0
-1620.0,-3700.0,22256.0,19707.0,-7000.0,-3484.0
-2012.0,8352.0,15368.0,24526.0,-9635.0,-3043.0
-4592.0,15776.0,9632.0,18617.0,-8836.0,-5704.0
-5420.0,17140.0,4020.0,11231.0,-8113.0,-6357.0
1356.0,19772.0,-2692.0,9740.0,-4077.0,-2873.0
1252.0,22148.0,-4512.0,2807.0,2356.0,87.0
3596.0,17264.0,-3844.0,-10423.0,8954.0,3074.0
2460.0,12092.0,2236.0,-14219.0,13738.0,2337.0
-948.0,12800.0,10060.0,-18940.0,13889.0,2869.0
-3364.0,8424.0,25088.0,-14412.0,9080.0,2548.0
-1944.0,1564.0,30592.0,-4500.0,6750.0,2022.0
-2528.0,-4244.0,28172.0,13049.0,-1370.0,-1554.0
-2772.0,4128.0,17924.0,28370.0,-6019.0,-3578.0
-4872.0,12508.0,11860.0,30668.0,-8782.0,-609.0
-4188.0,18228.0,6224.0,24138.0,-9210.0,119.0
-660.0,16820.0,1424.0,17466.0,-7654.0,896.0
3164.0,15256.0,-6216.0,16695.0,-2179.0,565.0
5220.0,19476.0,-6968.0,8901.0,5859.0,1722.0
3028.0,17992.0,-700.0,-2850.0,11283.0,3709.0
-376.0,14820.0,6924.0,-8979.0,13470.0,-864.0
-3656.0,14612.0,16912.0,-12203.0,11756.0,603.0
-5384.0,10460.0,24900.0,-9134.0,7225.0,3652.0
-3916.0,4340.0,27792.0,-1585.0,-9.0,2049.0
-460.0,4836.0,19860.0,8887.0,-5895.0,-2048.0
-1940.0,10612.0,12172.0,14607.0,-10098.0,-269.0
-6252.0,20172.0,8148.0,10366.0,-11271.0,1102.0
-6924.0,18084.0,4692.0,-657.0,-11104.0,-1050.0
-976.0,14344.0,-928.0,-3476.0,-9349.0,-3668.0
3108.0,14300.0,-6596.0,270.0,-3731.0,-1955.0
4828.0,19076.0,-7736.0,-7630.0,3800.0,160.0
4600.0,18424.0,-3120.0,-21632.0,11485.0,16.0
632.0,16068.0,10280.0,-32768.0,13274.0,-1706.0
-2124.0,10924.0,21340.0,-32768.0,11593.0,2516.0
-4680.0,-7516.0,32767.0,-21807.0,7047.0,4071.0
-2772.0,-15820.0,32767.0,4420.0,-3131.0,-1160.0
360.0,-4132.0,20588.0,25637.0,-10587.0,-3688.0
-3068.0,9032.0,11476.0,31237.0,-11873.0,-3483.0
-6852.0,19868.0,6600.0,27310.0,-10011.0,-3347.0
-3304.0,21864.0,1416.0,17918.0,-7308.0,-1931.0
2824.0,17180.0,-3672.0,15341.0,-986.0,-1163.0
3592.0,17824.0,-5664.0,11066.0,3242.0,1441.0
4376.0,14064.0,-2376.0,3047.0,11215.0,2987.0
1572.0,13152.0,3356.0,-1348.0,15220.0,2698.0
44.0,12340.0,13672.0,-883.0,16000.0,922.0
-2520.0,14536.0,25936.0,7659.0,10940.0,3643.0
-3040.0,7440.0,30336.0,15046.0,4254.0,4530.0
-1440.0,4060.0,20668.0,22722.0,-3835.0,-1576.0
-2192.0,13716.0,9972.0,26688.0,-7405.0,1681.0
-4800.0,21344.0,6048.0,22455.0,-8569.0,5729.0
-5160.0,21528.0,3716.0,9467.0,-9263.0,3600.0
-1464.0,15544.0,-284.0,1194.0,-8941.0,1373.0
2320.0,12936.0,-4456.0,-279.0,-5262.0,2595.0
4680.0,14620.0,-5796.0,-5202.0,-142.0,755.0
5404.0,17068.0,-2812.0,-16503.0,4687.0,330.0
4200.0,19120.0,2516.0,-32768.0,7213.0,-4154.0
2136.0,19328.0,9952.0,-32768.0,8036.0,-4236.0
440.0,8124.0,10632.0,-32768.0,9851.0,-1156.0
-2596.0,-11124.0,23852.0,-19515.0,10239.0,-1366.0
-6048.0,-11836.0,26268.0,13211.0,892.0,-2176.0
-2624.0,5316.0,17516.0,32767.0,-3608.0,-1687.0
-2048.0,12628.0,10204.0,32767.0,-3210.0,348.0
-3760.0,16324.0,6188.0,32767.0,-3951.0,-523.0
-1040.0,19900.0,3488.0,32767.0,-2473.0,2264.0
1408.0,18648.0,2116.0,24688.0,-943.0,3150.0
2640.0,20784.0,1284.0,9080.0,-270.0,2935.0
3300.0,21708.0,348.0,-5731.0,3105.0,4968.0
2984.0,14704.0,1732.0,-14178.0,4973.0,2809.0
1504.0,15844.0,7472.0,-20774.0,6347.0,279.0
-1388.0,14408.0,16708.0,-32768.0,2103.0,927.0
-1244.0,8728.0,17120.0,-32768.0,-570.0,-136.0
-936.0,-2376.0,20796.0,-21661.0,-1596.0,-4712.0
-2256.0,-2436.0,19440.0,-1442.0,-5749.0,-5984.0
-2664.0,7076.0,14180.0,6292.0,-8088.0,-6525.0
-1240.0,12732.0,7480.0,7295.0,-5011.0,-7358.0
2288.0,17840.0,308.0,11069.0,393.0,-5573.0
2604.0,25324.0,-724.0,4006.0,2975.0,-137.0
3124.0,20408.0,2568.0,-10549.0,10948.0,2500.0
592.0,11964.0,9732.0,-14066.0,13676.0,4415.0
-1180.0,6504.0,16588.0,-14415.0,11390.0,7310.0
-3180.0,-1420.0,27632.0,3827.0,6898.0,7342.0
-1336.0,-2744.0,27196.0,16128.0,465.0,1766.0
-920.0,3400.0,21528.0,26988.0,-4365.0,-1311.0
-3588.0,12496.0,14188.0,31676.0,-8212.0,-11.0
-4844.0,19188.0,11256.0,25827.0,-9112.0,1797.0
-3072.0,18176.0,6072.0,15020.0,-9812.0,1539.0
1364.0,15404.0,-1228.0,9555.0,-6583.0,421.0
4604.0,14676.0,-6912.0,8483.0,56.0,1428.0
5724.0,15828.0,-6672.0,-2211.0,6742.0,3044.0
5204.0,16260.0,-2720.0,-16150.0,14128.0,1873.0
2016.0,14792.0,8264.0,-29215.0,17097.0,-1274.0
-1516.0,11516.0,19012.0,-30892.0,16381.0,1349.0
-4776.0,-824.0,29080.0,-16627.0,10847.0,3518.0
-3448.0,-7820.0,32576.0,2178.0,1561.0,1192.0
-204.0,-4704.0,22972.0,21382.0,-5652.0,-3343.0
-2324.0,7556.0,15168.0,30237.0,-10357.0,-3642.0
-7092.0,19836.0,8988.0,28304.0,-11105.0,-2938.0
-8024.0,22440.0,7760.0,17070.0,-13198.0,-3500.0
-2972.0,19144.0,3116.0,6544.0,-13888.0,-2819.0
1756.0,16588.0,-4460.0,2851.0,-9027.0,-1840.0
6024.0,17196.0,-9416.0,1582.0,-1815.0,91.0
8820.0,19160.0,-9108.0,-11748.0,8243.0,1959.0
5524.0,18252.0,-220.0,-31045.0,16253.0,-463.0
112.0,12580.0,17676.0,-32768.0,15758.0,-921.0
-4680.0,-1592.0,30364.0,-29736.0,13595.0,4045.0
-5252.0,-14284.0,32767.0,-2026.0,3581.0,3676.0
-604.0,-7028.0,25768.0,18965.0,-5383.0,-1825.0
812.0,4180.0,14108.0,29040.0,-6860.0,-2672.0
