IMU1_AccX,IMU1_AccY,IMU1_AccZ,IMU1_GyroX,IMU1_GyroY,IMU1_GyroZ,IMU2_AccX,IMU2_AccY,IMU2_AccZ,IMU2_GyroX,IMU2_GyroY,IMU2_GyroZ,IMU3_AccX,IMU3_AccY,IMU3_AccZ,IMU3_GyroX,IMU3_GyroY,IMU3_GyroZ,IMU4_AccX,IMU4_AccY,IMU4_AccZ,IMU4_GyroX,IMU4_GyroY,IMU4_GyroZ,IMU5_AccX,IMU5_AccY,IMU5_AccZ,IMU5_GyroX,IMU5_GyroY,IMU5_GyroZ,IMU6_AccX,IMU6_AccY,IMU6_AccZ,IMU6_GyroX,IMU6_GyroY,IMU6_GyroZ,IMU7_AccX,IMU7_AccY,IMU7_AccZ,IMU7_GyroX,IMU7_GyroY,IMU7_GyroZ,IMU8_AccX,IMU8_AccY,IMU8_AccZ,IMU8_GyroX,IMU8_GyroY,IMU8_GyroZ,IMU9_AccX,IMU9_AccY,IMU9_AccZ,IMU9_GyroX,IMU9_GyroY,IMU9_GyroZ,IMU10_AccX,IMU10_AccY,IMU10_AccZ,IMU10_GyroX,IMU10_GyroY,IMU10_GyroZ,IMU11_AccX,IMU11_AccY,IMU11_AccZ,IMU11_GyroX,IMU11_GyroY,IMU11_GyroZ,IMU12_AccX,IMU12_AccY,IMU12_AccZ,IMU12_GyroX,IMU12_GyroY,IMU12_GyroZ
1872.0,-1864.0,16920.0,1746.0,1335.0,301.0,1932.4367658703138,-1834.5186606811735,16842.746189958263,1750.0566087292866,1322.9064838880686,292.696642680143,2000.9719218241817,-1818.4858015096218,16816.77209116206,1750.379778481498,1326.603860975588,307.17687488311185,1818.361658004675,-1843.1105436813696,17016.73743100189,1746.7174454981403,1328.3355358624628,287.5680621376779,1864.9381663030729,-1929.6682647874627,16938.473119650593,1757.9857027819546,1335.5079564756973,284.562367280922,1874.9960440936704,-1870.0527385471187,16897.3681660768,1739.263704087963,1324.7224938080092,293.93226844843696,2062.944393286654,-2166.7832631216156,16957.901251295003,1751.1836672845707,1336.8451854188502,306.4708572422632,2080.95497259221,-1813.4752838703448,16926.238463932335,1748.2173284128266,1336.6385850141567,305.47687614369124,1848.1706313942334,-2031.8657519714725,16938.742253263637,1747.2770089448536,1347.7338103856855,305.9095633837211,2066.199160188802,-1752.503743901126,16856.327952268006,1739.1516076815635,1338.309888450257,305.8810333708127,1897.1040461625987,-1819.4042532809392,16809.120736816254,1769.1275624535103,1325.7566888802965,304.75150372681094,1959.8502983250726,-1754.25320325621,16949.85665127749,1745.3271534800042,1339.8765949375318,290.2466567646734
1956.0,-1860.0,16716.0,1739.0,1341.0,323.0,1872.517020885891,-1855.3461344392297,16732.25201043966,1737.0314004295878,1345.0360185384336,336.9061771024803,1872.7010077331297,-1858.4718905780567,16628.578142013353,1736.5722112835826,1356.501191915643,320.4107316513706,1918.6668842525044,-1851.721111235415,16910.12251735611,1738.9356537425713,1345.8634356215523,329.31616930438236,1962.9681295852765,-1936.894945030349,16813.615194278365,1720.478458518337,1357.0541719954638,337.9161351972509,2065.0430559994743,-1855.1866117926138,16731.773479622407,1744.2894127608315,1330.3295543071301,326.94358782166825,1927.3691302135435,-1866.2635972536018,16915.535641666193,1738.2950479071053,1356.3636183087522,330.62825226487865,1893.4935086420721,-1856.6220020179562,16687.823613279565,1739.6545524766232,1356.715154832433,336.0223839292632,1972.9124920917993,-1870.2213819999558,16562.922298638714,1728.875445557031,1336.9326560887168,317.4235869084067,2107.1721594430046,-1930.5965370565523,16612.001637316724,1729.3208202770527,1335.9795802929004,334.5999057543571,1915.2320388943233,-1963.490880150758,16607.317657093514,1741.651141003547,1335.7261046456215,320.4325997394837,2012.6885245253998,-2091.3390379465427,16835.016038736718,1734.491950072939,1350.876067530282,328.3684353869591
1852.0,-1848.0,16824.0,1756.0,1318.0,266.0,2009.3602185999443,-1880.7115210074685,16714.87429891116,1762.2654332539705,1318.1349585516346,261.8457672876492,1981.1160483109122,-1915.763875769186,16900.08498355214,1760.2466698104931,1322.9304364784111,275.10442604373475,1776.573057980952,-1926.6663200391292,16825.37734833937,1748.6585943053367,1303.8222769214542,260.6898161928921,1857.5859479966546,-1692.6054130021366,16713.511496374034,1736.2342213505972,1326.4429119897397,270.3979504971434,1786.5461222958104,-1868.2695548006318,16993.966331014686,1750.9264730916211,1322.6636782548678,265.8194950261079,1720.5451466909874,-1860.3855601135303,16769.234927898407,1740.3427670206988,1328.0453308240799,277.3011921075489,1850.9999325633082,-1770.7563922318661,16842.88053063664,1744.1292498749842,1307.4427818799486,260.5965386448726,1846.2524514370812,-1788.8839145976065,16898.514722660635,1759.315618967652,1315.609869767971,261.00801866584567,2047.2988076224494,-1694.9050382900055,16967.23198315767,1764.921667389813,1327.413192827785,260.8619292354965,1954.3087239465963,-1906.7696035102913,16792.58148642321,1738.6244511386772,1319.2952264010962,268.174091098907,1875.5324528886485,-1806.770159795356,16873.849347719002,1754.1263484878523,1308.5572290549837,262.0736839655672
1936.0,-1892.0,16864.0,1742.0,1333.0,270.0,1973.3911685391888,-1862.4554099764728,16801.49724468098,1726.7599765246573,1331.2789899715956,268.4491104576906,1973.9603635733376,-1843.3349047936376,16769.05873249008,1770.6814336639818,1326.7908486663753,271.3957111152196,1868.6611585731714,-2042.2561422072374,16966.96684222152,1755.3005457695654,1314.542474906761,275.81845881914313,2105.272886749932,-1905.0755438589829,17045.641337653575,1740.6315814547406,1312.409055822214,285.6315532775819,1893.4403701996046,-1827.43467028229,16865.064643736656,1733.2173948961588,1304.4230189358682,272.45820167769773,2158.444626752817,-1786.9753134110676,16672.581320404264,1754.6224757087489,1343.8000113028422,267.2745425710999,1953.7451783412084,-1769.986677565882,16964.35244874198,1739.8285646922418,1331.4203302625285,270.13034740950064,1930.984594000372,-1713.281606034268,16804.042504525354,1741.8009900922266,1340.9719353907678,267.85385353698393,1896.8561192482503,-1949.6770168428782,16793.52596787005,1732.0876767275429,1337.218348286662,263.9931266148467,2005.7286173503487,-1993.2141608032935,16903.91943136045,1744.696227498242,1330.38446900117,269.9108677345509,1880.5559570953944,-1818.2505556414421,17063.807954582244,1746.9001050369463,1334.4092925974644,273.5346971581936
1900.0,-1900.0,16752.0,1739.0,1341.0,272.0,1912.8691096389355,-2142.553650630428,16815.72863406521,1745.7388749769518,1339.3766867485483,258.8113124831375,1966.8754206281133,-1783.1544487407766,16612.0361966868,1732.983675643184,1346.2519318710583,275.9220278588325,2008.3890324773565,-1856.8911503670747,16755.578068455186,1747.019227946345,1337.4666315560103,276.8888641625839,1835.747230841167,-1856.605349119334,16722.30090644448,1743.27450391056,1356.4160210650548,264.43074673467595,1987.923367703236,-1925.7729565374605,16630.82436639643,1730.8066251819505,1345.4882962047182,264.18983514019516,1915.8687290590556,-1843.5461659036584,16748.43956002328,1737.8117089137338,1348.2028329100276,274.6060641411914,1781.7735707982472,-1831.5877961991328,16643.93056166922,1755.0800664660242,1366.9351831899912,281.53898242406365,1651.6767157118647,-1869.2645262253202,16732.412859486558,1730.378401359731,1334.1362840224979,268.37290553041635,1899.8016834458997,-1913.9492953281385,16694.048606417316,1735.7653920565672,1344.9751529884763,282.30478833939196,1954.7316553678072,-2033.8068382905599,16585.798399712785,1725.4195054341878,1328.167851686162,273.406025352683,1932.130417425688,-1877.2635284752332,16762.504238079367,1733.4657080367704,1329.4717499767855,270.6742963993568
1820.0,-1860.0,16828.0,1735.0,1286.0,271.0,1663.3112815861514,-1871.583149508753,16890.840338859532,1719.0589491271712,1288.689913558105,271.7676840837952,1877.2119586172857,-1797.9824928314786,16785.763059578363,1744.8973591961008,1284.39619288378,274.072440598404,1920.6580754617507,-1874.39734551537,16849.558245210068,1733.8158127263573,1291.4316925566654,265.84007252395827,1818.8319210224954,-1964.6393748837704,16706.78651236714,1738.5751217258335,1296.9539135301407,263.8417887089228,1996.7044277879536,-1740.9101637709987,16913.56164006333,1730.9995957913095,1272.1282172264573,276.1072091097417,1824.4061456803613,-1828.7574704098522,16845.90108707471,1717.4386999460262,1298.3763119948178,280.2176968885834,1926.7793259467112,-1889.329313478465,16795.256549248646,1731.118234852269,1298.410002657613,270.2993852616965,1920.6017380752292,-1746.3486712890322,16863.88502171095,1743.913740698102,1300.2141318570566,265.6645456862779,1831.864278048729,-1759.6901802968564,16766.468679743793,1726.9359846080174,1289.4519968534821,284.2106959020838,1896.201669164152,-1602.4095160052916,16872.989374741708,1730.893521174891,1289.5921490122948,271.21676822785537,1779.2881072627606,-1901.1989061895435,16829.201016017985,1716.3603638634984,1302.4855567030327,278.91749747659225
1900.0,-1836.0,16688.0,1716.0,1310.0,290.0,1888.1124600555675,-1808.3395092303504,16642.061360047832,1720.1761860734132,1300.9397798777961,290.1113547040481,1834.8821942880309,-1746.8101864449025,16605.112825647797,1723.3999990176953,1313.8116351544832,265.90815002479525,1750.2028945219151,-1897.4367274699532,16809.172942465902,1705.27263392342,1331.9539920093387,289.41277849062146,1843.7316632328539,-2091.8811984271924,16636.290686512566,1713.7015217542128,1311.873250100131,268.30064972557005,1937.828382052015,-1923.946764473622,16648.728660605888,1715.3537997681503,1319.6492331817478,287.827337983986,1823.2183009093699,-1896.2995129354279,16539.648219453622,1695.3027237939289,1306.680260797194,293.23506743773305,1936.3486769011351,-1840.3448943949447,16686.15083599466,1709.0533790361985,1322.4397672288046,299.34114806751927,1873.6145493834665,-1866.4979053492473,16743.323394644052,1724.597916422609,1305.1882660434544,294.186370786864,1897.6821184963726,-1868.717354760155,16557.773726416402,1725.9195766879518,1302.8580173169696,295.38336992809656,1682.5605198352966,-1889.51544287732,16677.766387817097,1717.7438150910339,1303.1053991579001,273.50280269321655,1918.9977416479403,-1642.2685408772177,16563.144122541813,1739.230993414316,1314.8697700259775,274.4327472297641
1852.0,-1812.0,16812.0,1727.0,1298.0,294.0,1776.9808072387161,-1885.9581936245424,16737.615645704005,1729.4853837433066,1293.1628321936123,268.9821664316502,1939.4281846806716,-1872.8690459257793,16758.722013847266,1715.457053464716,1312.0562024408732,282.4563910321948,2020.1468853425545,-1835.5377776746216,16795.756730265744,1731.021133240212,1303.4342121108937,298.78120896209794,1718.789141906778,-1667.0765815589668,16783.01538091518,1719.8243724184717,1308.0789504311829,291.0568530811331,1659.0386039935072,-1864.9959382294417,16882.81724520887,1721.8100038995913,1313.1243905426538,295.99553863977286,1653.075366065066,-1848.4461412284686,16786.526996853507,1711.7557683758762,1311.3490339211596,298.18308041420374,1875.936117459238,-1833.0597956898316,16924.351898123547,1728.7922108037228,1300.1755374856655,302.73673739441,1648.8051839597965,-1634.8228725319614,16793.31538568455,1721.814954463514,1304.8990292841988,302.10529211166426,1905.729532839311,-1875.8906582009824,16879.84374516054,1723.4984565981626,1279.317669142904,288.43539465991853,1959.6422746042028,-1831.5161335006526,16907.4750244821,1704.3823501602205,1302.14432629443,304.4450919885431,1792.402138682104,-1801.4193476920607,16823.712047951394,1712.7142420017942,1307.8201748368506,303.25597737461703
1860.0,-1932.0,16652.0,1755.0,1316.0,284.0,1791.424170035328,-1781.3079875968779,16685.24830345764,1769.4807792635813,1308.5269683391537,269.07067191081956,1760.9681295582786,-1926.2132270550376,16641.021411966572,1762.1813628852556,1305.6982213936749,288.62910657022115,1815.7002381460825,-1791.5279062287652,16586.6773271542,1741.5720451155064,1319.4026196786276,270.96775067816134,1908.4139619390169,-1940.338760780483,16603.60676755767,1758.7184890739286,1316.45217830482,286.206287192902,1909.0626131217496,-1939.8341542442656,16714.48842067523,1780.7444201722176,1308.862739450123,286.1622927483411,1705.0161357488896,-1978.953028602344,16565.173243166275,1752.2554896369886,1319.169833323698,268.25110081553527,1760.889774408145,-1887.2877379128313,16627.893741316107,1747.3486520858041,1329.5630664688172,267.8581329800217,1878.8323469923864,-1934.2401387688587,16700.278553249547,1756.1456768126393,1321.0188783783824,282.9774412907605,1799.6589270780653,-2040.949090747379,16636.403713727297,1732.7222668879122,1327.6803460400622,268.69533658498193,1621.389663087406,-1935.1981640654265,16647.55895839856,1763.912291816523,1313.9099181351737,271.2395042777116,1784.939675556555,-2053.5467188187,16758.204011616595,1765.615291588603,1314.7624806709669,278.9215366764605
1896.0,-1904.0,16760.0,1762.0,1340.0,285.0,1751.8167845309567,-1950.503529458194,16821.476101688364,1751.5516549070749,1326.7869668362662,273.190623606385,1880.1911261989171,-1820.733264693183,16550.72300512929,1779.5541941559177,1355.9204967922733,279.0858726487906,2047.9305259013772,-1851.4897551875458,16657.97607642366,1767.904210531536,1349.357634542184,292.86925580806417,1764.350014399296,-1984.0362579939892,16674.435620285858,1755.544638780898,1353.453286398763,265.8152862056936,1939.154543570234,-1966.5851084691938,16742.012406264595,1747.9030560232925,1324.6317468056382,294.69102644938323,1801.950614128109,-1916.7985486725315,16831.10428671366,1769.2430738411929,1329.1188621837323,287.6290145111521,1826.4473690986972,-1755.067688814986,16695.90108297523,1761.5488339036992,1353.8959721791207,274.34206391258846,1814.2563370540586,-1818.6918144049077,16771.1665087537,1765.1708953985253,1353.1439224745952,285.94049267189973,2033.5161562712037,-1856.5964159521252,16820.959505690225,1766.1105015598987,1348.0616270349271,276.9314407246349,1927.0433864086508,-1702.7458358022623,16837.226525917908,1789.1933325098576,1342.9880047041258,288.39080793094354,1975.2888998989026,-1780.369759842707,16733.329326060993,1760.101338252513,1329.0708014037828,289.2417677860824
1928.0,-1868.0,16756.0,1750.0,1323.0,285.0,1896.70059390479,-1834.4828325567344,16500.119706774953,1737.9091401635067,1322.7096168206374,307.7615386522353,1979.8737015020392,-1690.7530953756166,16787.314944022015,1743.2268676210128,1323.293205912309,269.3404906563382,1886.8922165059682,-1738.0509978644313,16887.326196132402,1743.191828133568,1337.4179692497419,271.7966737435139,1820.0578973158742,-1919.7069803156671,16748.52839397191,1747.411927921248,1326.8517973163296,278.752647167008,1818.0500716222923,-1869.7420597413454,16805.224507975,1750.3764129523665,1333.185478623661,263.77064957232824,1803.7370696193339,-1898.0969573146906,16759.558116833647,1761.2181724890181,1324.2589304298651,295.9786766438656,1873.7666989523082,-1873.1790648795863,16922.990203935897,1746.4814733431072,1327.5456396919678,281.68326999759523,1846.1774554045073,-1892.2387532524212,16703.960393285997,1756.550237745535,1333.0836930483429,301.51638138121353,1882.3829932970514,-2023.2163647083696,16874.049652077876,1739.1553053533064,1331.048895890086,297.4273488514088,1975.2584123155445,-1841.4907441296461,16654.343883504916,1763.1344426222645,1312.935340114641,277.99608605970116,1993.5631092558672,-1928.3608328799987,16641.50255358869,1759.6858036780452,1322.7876804922541,283.4066402831507
1836.0,-1884.0,16812.0,1726.0,1326.0,264.0,1724.5936132636257,-1875.3360039152262,16699.51088156949,1735.8573031548742,1303.1419478857945,261.32204889494494,1951.3529969881888,-1781.9249786564637,16602.802964052436,1711.6586712364624,1320.8349332472133,278.4844526907363,1930.2501230674536,-1893.217960345533,16787.31715368016,1739.0623100039948,1329.4744520443737,245.15025084582973,1790.9698138939102,-1863.9129411143683,16773.224134007036,1729.3431172853388,1339.8587902460254,265.1563536772886,1869.7479735674847,-1972.0395647077069,16737.88757021424,1718.281493675935,1305.9550536735665,263.43257651057945,1968.4244892550548,-1920.8971509364292,16752.12129596565,1729.4224375591796,1324.8907803230115,266.2483043497601,1915.614770351204,-1812.858648886496,16998.55957903916,1751.1130898146957,1322.570223542295,265.7447132949029,1855.9957086372935,-1880.217754115024,16748.172857108326,1739.4993464073987,1326.2292027683393,258.8233231772658,1941.2426461387931,-1822.1993811889017,16827.390301288106,1730.7229712785117,1321.5144066642756,259.75371819987924,1864.7275163545833,-1833.8926114263486,16608.396504382377,1736.5983840592373,1320.3474313587844,283.4830859697221,1675.3626371750045,-1954.6104936037166,16846.05392042293,1719.5321967287225,1321.050665935573,281.46903703896567
1960.0,-1888.0,16756.0,1732.0,1317.0,292.0,1933.238626009371,-1728.357982455571,16668.23380224062,1725.5687157646225,1305.684071878213,280.51200800167226,2119.6861827789694,-1896.7217119862487,16778.28826904874,1723.6880328996435,1307.471351750173,296.4582656929036,1936.3024701075033,-1979.8433850575461,16715.443561959975,1728.663021368767,1318.4414911434758,278.78591547665724,2031.3732332414784,-1813.4918487028701,16598.766422357996,1734.6290489461578,1302.3479016167096,311.39364700654005,1884.7008424916164,-1866.617035748922,16710.979728759783,1728.2527244564023,1316.8390725583808,285.61755355221754,2109.9994866401307,-2005.7535403264274,16874.38211288873,1725.167904338804,1332.3664421342485,280.283449328185,1959.4013713474421,-1937.8093615077328,16785.700450975975,1724.9982715532774,1317.0607050193441,287.4687019595317,1746.4204474766943,-1979.665106653955,16782.872958100088,1730.3305407243383,1301.9111511126152,284.09018605017417,1942.8725890439302,-2071.042067191103,16859.41705930487,1740.7581991621955,1321.2040025916665,280.2515796887256,1994.6228029118395,-1911.2210540299488,16866.629763305576,1724.7432191391988,1302.6879562701347,285.865332830994,2074.712146738952,-1825.2922227685722,16822.837628586047,1729.059872406737,1292.8795149655487,288.29256896447123
1936.0,-1848.0,16732.0,1755.0,1311.0,273.0,1914.891775931159,-1752.5601744482883,16780.027400653442,1750.308737536218,1318.3974985471482,265.33616913988084,1878.455761644249,-1807.4619777882285,16599.246003787423,1756.0159485890727,1295.7505094759779,260.35419138980785,2025.861646776314,-1783.452163800922,16868.936068572653,1743.4253571237873,1329.4811066721575,282.2304271235866,1791.509664901264,-2051.880128243576,16794.02760094602,1752.818141069289,1319.9816835985641,264.0472072779807,2223.176032930173,-1750.0206198417188,16691.48903368708,1745.6073956182215,1303.0388766218964,274.2946854750226,1780.7528824254755,-1779.8503055472452,16854.781232010573,1743.7010332208872,1307.780810126363,273.8330962315862,1926.2351135446334,-1920.4311574111268,16630.01664704363,1754.5999978735083,1321.9527034904834,280.7415197573673,1863.7966210387888,-1758.6469531824719,16731.101672767698,1752.5132137013159,1307.587686794723,266.64277964955824,1877.265620144272,-1732.0443678762913,16792.722658018076,1766.155760855053,1315.0864124918553,271.3759082418819,1721.1236764498587,-1729.168397089703,16778.597937570474,1757.8733360050962,1309.379096941853,261.8136855171213,1955.3603514008516,-1814.8325035830146,16775.616929807602,1748.7790081596809,1300.9637254039512,286.0209747973413
1912.0,-1844.0,16812.0,1686.0,1351.0,315.0,2000.4360241456202,-1865.7192665427767,16901.980267441497,1666.7264941135386,1373.104669918947,326.68538865406555,1862.0945254538533,-1750.4369159253145,16798.28051692791,1676.3734243405102,1354.2078275716426,332.66721787963354,1913.9820539770883,-1816.1587614468417,16874.087977234118,1674.6858328765322,1343.1912985434835,313.89386888466487,1956.7395588712338,-1798.0893102204125,16904.29061281807,1694.5768342143633,1358.1453668231904,286.1097629970141,2041.5684754043298,-1898.6818584523664,16839.69907320844,1693.9405996945745,1354.2490997975635,319.35673093225864,1827.626185271084,-1773.5897239439578,16586.816533166577,1693.450414077237,1371.6426707552293,320.7862284656919,2067.3218078523387,-1748.1772895186343,16761.632638492167,1687.5643832163482,1361.0564982966587,295.4933423391734,1809.3451073193037,-1912.609101623121,16852.34355513786,1688.561966773723,1359.3421036982636,307.1120314608656,1751.1353081792959,-1899.8716102762444,16962.87976456178,1682.2453939068973,1353.4782999792883,307.7195766626473,1914.2514180939338,-1786.8594013812099,16714.00866699429,1672.0604652502918,1349.2020289479551,305.4473979470432,1952.1215157383265,-1936.3957267074254,16776.077500635118,1684.5274256548116,1336.8310231993619,341.90193844898647
1896.0,-1880.0,16800.0,1743.0,1316.0,274.0,1768.9776265024957,-1834.009592860536,16777.82521761088,1735.7215220513117,1313.2372841294755,263.0706134193803,1975.2039618847482,-1899.7673708529815,16930.76443394377,1745.5671278528414,1313.3240740550707,273.0933203719404,1884.9950465900072,-1911.022229317817,16759.427963486185,1734.3618232375509,1313.5949106448284,267.6000928569046,2025.3139969485799,-1970.8505436020553,16824.496754468968,1732.9511008560448,1308.7681627548093,286.0124809456065,1768.1718461972646,-1843.4279432888557,16813.747403765738,1735.095685726566,1327.8529270930946,262.4380599621376,1888.5156914318552,-1927.918861197462,16783.17470488879,1744.1803971289787,1304.820592187571,278.86200547190344,1767.4175688227779,-1941.7984081972481,16813.641053735366,1737.5820947393656,1294.9837557259887,271.13100959371434,1900.5123092779095,-1930.1834353391614,16784.220312547623,1739.280343800082,1306.496260140083,290.0618738024162,1734.6132682210623,-2038.2415887862524,16689.419168034783,1743.719774357696,1330.5055261095365,283.37656669387394,1804.988837824945,-1762.9158632614394,16781.614734324263,1745.387305559917,1305.0535362096696,270.9632104709028,2111.0190334355802,-1881.717280606136,16853.48080396889,1757.9304515868669,1319.0636821591015,295.2345109664245
1888.0,-1868.0,16812.0,1714.0,1329.0,270.0,1751.6174475830983,-1863.7603544879528,16749.748494301144,1707.589286511116,1343.9036538557582,288.25569602080986,1817.0420466669018,-1727.254107776224,16731.513674112608,1719.4673932880848,1331.5279990560546,292.7595101981922,1898.319526866713,-1914.4546890441422,16952.037489321676,1718.5363164937007,1322.4426877139153,255.57383175189975,2011.3960261451957,-1861.9033064152961,16754.517703038207,1714.7835745624184,1334.6289217215947,273.83088738777025,1839.6528785567523,-1969.936065070538,16783.891668460405,1729.54399449721,1308.0082925945176,268.60309785042654,1867.4621108639317,-1829.099492941698,16887.956092172382,1707.0617418903796,1335.4412897559378,277.2814459056693,1841.0666630628039,-1954.0936939801907,16946.224545134024,1704.4760597540433,1305.9651308894618,260.30506746153765,1905.6405005836443,-1985.3341400649192,16758.804587445404,1704.4625259637978,1343.0336852325213,259.4895371136857,1870.6460290659643,-1835.6823841244898,16746.625430418422,1709.7481957923162,1330.2816196860342,259.3078060524606,1860.577000465848,-1856.571363143612,16775.94234453332,1726.8415176146486,1326.3462686450507,272.48378829438406,1989.8166436890288,-1762.0942953647607,16866.309366743983,1721.9545136885822,1318.123885952557,253.5255463666544
1908.0,-1828.0,16776.0,1739.0,1334.0,291.0,1912.9818089933694,-1822.727696803375,16734.06029590805,1728.1675842217153,1336.1053984898242,275.49094382870703,1986.3006862792136,-1948.1911314994989,16746.946857176084,1752.939683689901,1339.739902834169,284.9164142351909,1957.2688726537822,-1641.7271499877838,16730.608999290467,1736.4415549029168,1339.5393194555222,297.2031203104538,2066.0806265074248,-1638.0950844081024,16843.52789050749,1717.8887731631419,1320.0470235409907,292.9805297546621,1888.915999426013,-1867.0329665847344,16755.735289934823,1740.1885748011905,1331.1643552275132,284.49509342688975,1943.657877719737,-1724.6175014476928,16794.26330058402,1712.27297149764,1345.1371482980055,286.99677327920625,1991.2285201396342,-1931.7692754541706,16811.993232527613,1730.6558713446027,1319.0923487906593,304.6830847245088,1877.8596885348668,-1838.1701275284986,16627.684269505124,1743.4442435196604,1353.8919317751524,285.8693178531103,1953.741862026845,-1950.5896237066456,16742.625400485937,1742.3143920650045,1336.1604405039632,292.3605642639986,1922.0184867021942,-1741.4009646026643,16788.485927938276,1736.6420088883058,1317.79583694178,309.92566132067765,1696.6907011796368,-1845.0914387272742,16853.08595728938,1746.4449177995352,1324.1037856271516,288.85888648235425
1904.0,-1844.0,16760.0,1757.0,1316.0,287.0,1810.2052051587964,-1731.5843847654016,16735.715226490986,1770.606072152468,1327.4718273417923,290.4582300838814,1940.6887187586349,-1789.0662836569395,16599.693840284428,1751.7701417000426,1302.7942224950355,285.53451617129923,1910.8057789422712,-1880.55030518516,16878.715689154298,1751.958825591978,1315.0740462262734,292.24589045239907,2084.90596349025,-1723.1568320578383,16793.969920333388,1750.6924808757715,1324.8572318333527,308.44339295182726,1871.872512183902,-1887.331999813759,16542.58861103054,1739.940211736679,1313.8658667904135,272.9744815229171,1796.743943351207,-1844.6681901771233,16992.197290175594,1767.5214513489138,1318.1213218284504,294.6581206194381,1929.310958497067,-1840.094319773999,16764.080787870702,1766.5037651547364,1329.9323383908027,288.81472247093757,1987.9799322700728,-1795.0519689733999,16612.392052832914,1769.698081082083,1311.3472663534146,294.2372010592587,1912.2212309935042,-1870.2054052856815,16864.33439141093,1753.0135957066548,1318.3906642872823,273.16975046641227,1970.677499196201,-2070.385814244255,16725.206363306967,1764.0571581607362,1315.440195544751,293.21965701421203,2080.3806365950354,-1838.165962602673,16700.354632790964,1765.1603334232377,1315.697229996636,276.82303356279954
1900.0,-1884.0,16716.0,1728.0,1337.0,318.0,1912.5940915766191,-1888.8213392588304,16724.74079848634,1724.6240491720325,1337.7970920893501,297.28161613893917,1889.1017633555189,-1789.4941634322768,16713.952244414802,1735.2969123826592,1338.6909331406575,337.9082176214973,1787.0859898140575,-1884.4685555107326,16674.606951518606,1745.15817865133,1326.8911661923455,313.58909873474187,1915.2836342795167,-1755.6889752133904,16647.42852917653,1727.4264676353212,1332.068848579064,318.0812495760526,1743.951322422911,-1749.6097195034492,16582.428812927657,1730.027131898225,1343.7733525192502,306.92147712733424,1888.5794233428144,-1830.9592963403145,16789.244910729525,1727.9570897670576,1345.4778920684153,323.7359069734682,1827.0712853481762,-2010.9828781299716,16790.047481285626,1740.837756369503,1335.036681242438,327.0003233807497,1677.2756448177083,-1910.7306939877462,16816.50587119474,1726.981842529746,1319.5308927941435,323.0393953170959,2005.8402097863716,-1875.945504466243,16589.094117815137,1715.1403182569154,1351.912280642942,321.51953804445753,1844.0685955476606,-1901.6902043104667,16953.399683463333,1722.989999380991,1338.4537974044194,318.3564790476851,1998.3563694630768,-1871.8497635433064,16708.73148452629,1709.656761754142,1345.9192468805131,310.1109674226512
1932.0,-1876.0,16704.0,1739.0,1341.0,314.0,1972.678130759792,-1793.9358803251587,16653.360131029207,1766.5867005567382,1361.0959077548412,311.9367866936514,1839.512895192038,-1840.4800823069222,16918.42986418704,1732.620326751347,1333.8859180873171,305.75700486445305,1992.5628849054997,-1860.5939509593952,16776.228003932443,1731.6059193681804,1345.8037729542375,326.9427811360675,1994.238740607797,-1882.1850543107068,16626.029306842614,1730.4267756134434,1342.5057875795874,319.2455911332428,1871.4091605927729,-1874.6759003378959,16732.343303257752,1741.3843937008312,1335.2885893362663,304.55773292476215,1936.3343895197752,-1907.2989661677927,16615.791232268402,1725.4197062093897,1353.5512288572988,321.02741531779,1948.694062517039,-1814.5835660710925,16551.18259829569,1741.0261235257094,1340.9991001407818,308.61313655220465,1988.5569349009675,-1925.349684349843,16864.7843514769,1745.935835839794,1328.3385660348908,315.18503094816526,1735.6269460201327,-1877.5758790805758,16498.73816085235,1741.294994056846,1347.6853404933643,319.21555922437693,1966.708236596119,-1677.97566129293,16650.33473198096,1725.6763397761815,1334.5127717986313,305.6695758760572,1890.7222699883641,-1839.1440831441976,16493.743953465808,1735.7962687305312,1331.8455170331342,306.424289280343
1836.0,-1868.0,16832.0,1743.0,1322.0,300.0,1789.0978030066624,-1786.1244441995302,16683.338974645154,1737.217624009292,1323.521378675454,315.0241622870331,1897.9751233967556,-1704.4222201055547,16979.712248671887,1738.1640202097433,1330.8148216606876,303.87283556290987,1789.1369184993384,-1890.3946058391662,16777.981261887486,1737.3281746379648,1335.0418366287365,302.80528648954663,1890.9815875641168,-1822.8084591368406,16713.674036916476,1756.6685865753905,1319.4715286462226,299.2717837558241,1804.5348730542898,-1831.734499967403,16880.99306388245,1747.0691215270715,1325.467888332664,292.63188266763206,1847.349773421968,-1812.6337813593723,17003.22064442837,1725.383259601575,1316.9816879105763,305.65289898759823,1809.961048225088,-1975.286880218108,16865.81650775463,1744.6335650559577,1329.3327806022915,284.47016831516856,1727.2341216113905,-1987.4860867903244,16928.04012127563,1753.0729242027026,1315.0224936842947,300.2883324794044,1751.7487499979,-1972.942887899809,16871.132736268162,1744.0884624801429,1312.891349417596,311.5539418631436,1671.578253803135,-1667.9273548619683,16564.217690718342,1746.545082361001,1328.8349376565914,296.80036218554324,1668.498494235183,-2023.2546666714404,16703.588606263285,1735.3796562058199,1333.1880696028434,310.84675312028804
1916.0,-1836.0,16708.0,1739.0,1331.0,316.0,2146.3922515072836,-1898.9308192536073,16835.51462593152,1752.3162739153922,1325.747536014602,301.5267547046239,1937.2270865712253,-1932.2689711587939,16641.682736824274,1745.2539582568554,1320.5214588488025,317.9742492744237,1966.2776689527334,-1745.3210176135776,16601.112263450505,1736.536578673227,1341.2579270366832,302.52039293907984,2028.0591872570308,-1858.6637582287242,16721.794561516053,1730.7997839196994,1318.3991888219064,327.3786943619083,1915.905085658734,-1871.9312019289691,16685.26761801396,1748.8040096204738,1321.2207713693183,317.2530762780396,1874.236930023358,-1711.5764782378303,16752.68400925168,1754.1163954231972,1320.9138208109607,289.66311418827024,1703.5270522849282,-1814.9231434090002,16674.608807815624,1754.8928965161583,1324.2050973191094,299.7977252782189,1812.9058653308853,-1845.9773621007535,16469.70113444597,1738.9021156018102,1322.9312809753412,320.34860772344564,1862.7889195461705,-1759.0509009483944,16646.794650999454,1741.1897919297219,1313.9795975133395,308.1114718202021,2101.8023540202776,-1878.592312882081,16814.469897637413,1749.5266664234148,1343.805220511764,324.6342127411061,1917.6525341618092,-2062.3638060499597,16848.41337441099,1727.9049684231115,1337.1405571468808,309.5019721916026
1920.0,-1928.0,16836.0,1720.0,1305.0,306.0,1747.9133235573563,-2028.0157056070564,16873.237332057106,1709.881918022024,1311.418978820756,307.9426924606346,1932.779317798076,-1893.968743985908,16817.537248810113,1731.0765729224327,1310.534211854165,296.4980527415759,1714.5722053847871,-1822.167263345912,16875.87894717884,1716.554510067323,1302.595741098074,286.59950481856316,1816.2124264567237,-1935.4929676492839,16778.832175736345,1730.6947236567105,1313.0253071811615,317.0833664726495,1832.5421430703084,-2112.272690303963,16780.99495638146,1740.334983634332,1293.6948472838515,322.5327634351602,2006.0496183809423,-1870.3195139165327,16933.69719206039,1716.0079792722433,1289.3883946490296,297.86816707260675,1854.1619876009024,-2004.569470748676,16897.09044193859,1709.0268400145349,1295.8824236204061,292.1366684121022,1933.685580440901,-1738.275658593097,16922.611422737034,1722.7392372439324,1296.3588220933025,289.91083364087905,1715.480948814136,-1711.1553278091194,16833.09530933513,1727.546687564625,1311.6955794953058,303.1284612418861,1780.8078679832258,-1761.474442831348,16877.313557874186,1736.6015637137937,1311.221974195818,305.2165551909914,1788.0052878275649,-2028.9345737329425,16866.71349702977,1724.5597365872825,1328.2269379827428,315.7634268174605
1860.0,-1760.0,16752.0,1737.0,1310.0,321.0,1843.8694272978971,-1746.7052276841691,16938.707356401053,1740.829455615186,1311.9817151219065,329.48856981624766,1790.682812572733,-1662.3064565732882,16736.33814380988,1744.4026888845642,1317.1304031090945,322.19260808992715,1824.6759619926338,-1696.3462656761926,16890.280888227262,1759.5940192853964,1316.9667994811884,339.71850449296414,1804.7357875532657,-1874.5999838405185,16607.9346120012,1749.407541002987,1307.3739675888125,335.5543680613823,1811.1529303152097,-1635.9291449192538,16645.838462225693,1724.8192438768037,1321.0895150400343,313.89263626920393,1812.8879852172668,-1654.6585270144496,17030.140338591278,1731.8603222575218,1299.531811734167,317.44779693779395,1905.8066711781414,-1768.8294418484645,16818.44303820518,1727.1713907450658,1331.8348343245125,328.1679163774018,1868.1977655407322,-1901.1408952288184,16769.188582734972,1730.0748351589257,1322.8082675712772,334.1163464275834,1839.2427635132537,-1602.133454724859,16663.985896421593,1745.9657278453815,1310.3198610875568,324.59884952653874,1971.1831342340115,-1760.1047395981784,16729.45115780075,1733.420684582363,1302.1683731764983,299.0536373298735,1836.7573013372082,-1684.466824590345,16940.32989942961,1739.6725902238527,1317.9360197925928,325.8568598165893
1900.0,-1800.0,16856.0,1713.0,1379.0,314.0,2069.9368402496384,-1726.9064210707627,16760.480619733145,1727.347450100614,1372.5197670469652,290.5937455419944,1973.356570073925,-1672.4492086505347,16909.231201513154,1708.694420044572,1376.5509694420512,307.86163359677255,1866.256711531455,-1755.7054599523651,16742.279361084893,1710.2364985676338,1385.2765515345538,302.5969727643287,1925.9334011668395,-1696.41902422132,16870.305740407985,1709.436635173257,1370.8446291163798,317.8454919840275,1939.7144191857185,-1654.5049610782398,16998.715720627628,1711.8769442590012,1387.5464165853964,305.39343242513485,1794.3215121466649,-1707.0607755097524,16822.327704438976,1713.4095434285352,1371.899372230228,311.05408348811284,1892.2031585943528,-1783.8812230345134,16837.585803310936,1715.3373923532527,1380.9891174575862,326.6389854741011,1861.155676868561,-1786.3349673442463,16950.65567683772,1718.3839523505983,1377.8338787694586,323.0915031704196,1980.8658470598555,-1874.1102138335448,16825.711967871724,1707.4421462578207,1380.9443883167241,306.78071094695,1745.823628846296,-1782.641884638229,16653.438666074486,1712.1629397663432,1375.0573090592989,315.98861466483197,1952.7673744057788,-1995.9484490505085,16880.29744589521,1703.9372560231868,1383.397093346729,311.15271463490507
1900.0,-1868.0,16700.0,1741.0,1298.0,287.0,1821.7412379601185,-1935.5487126800845,16662.69323862014,1757.4439247959479,1314.4121901936503,292.100919292152,1839.1243185691872,-1936.1655462130543,16725.578476978706,1743.1953995147426,1298.7205075301245,293.33756402932397,1899.7267441605086,-1792.8085730983394,16583.445066698423,1738.0083678936048,1290.8256175401627,296.9128211279439,1667.5846525861634,-1736.5681879663944,16683.35878173659,1751.4960099014081,1275.5742022052166,292.989291798879,1841.769570700422,-1933.1610538355797,16688.132929949355,1727.860921078423,1309.236304203931,280.2566221800078,1883.8436680406808,-1837.2957965506578,16671.376851166973,1741.0078847690224,1273.3713887471115,276.794153484354,1869.9017097896453,-1763.9980936000352,16813.300214196683,1757.8912395934315,1280.3655253560405,289.37429163763363,2004.229269434054,-2035.0059090919622,16710.208092801186,1726.8738409172327,1280.3437622226577,286.95626554124357,1978.3488262759126,-1939.4959945842502,16654.78522232785,1744.058516579322,1302.7954281124428,293.56258053137117,1978.0298426829722,-1813.2612333792606,16685.38479214884,1749.6702595550707,1303.2617633775894,281.176023643438,1837.7531987977698,-1804.586753002526,16652.6617545045,1734.719823078225,1290.1961398875642,301.6973209458748
1904.0,-1784.0,16732.0,1750.0,1337.0,285.0,1818.3654973445452,-1728.6955912465296,16773.496451148476,1744.71155170778,1344.703236190965,292.6210340778419,1798.8864376918025,-1869.8796502984019,16691.749779928617,1729.5874510745314,1336.5415173785866,288.035054032688,1861.8088591753108,-1893.3423911177856,16750.53544883025,1766.9898604315285,1316.029376206312,288.9814369560212,1877.4861940431354,-1912.6343350351376,16640.383099018207,1758.1425246551776,1334.5290441224502,269.3103049367512,1968.0848909597285,-1965.6045638706582,16705.691324443032,1736.2281814183302,1346.5639786439901,285.9214994819342,1813.8754584606074,-1646.8287556819737,17072.169000780894,1746.8808033575012,1333.8244646587202,270.05088902149635,1901.4710460342644,-1719.2150112520594,16805.889929751716,1751.6265390676408,1323.3743847722242,279.29566383709187,1771.0833769808353,-1791.3701116823465,16657.83296349238,1752.2360435187886,1350.1244692253845,287.5076950531511,1780.1996257332373,-1784.0310992352759,16876.6671533149,1751.5435598288968,1317.5896738624217,290.9943243915758,1959.9700219581068,-1894.0055001965836,16736.469083721,1738.1638507657383,1330.5979189501934,275.0289637870286,1875.398255833289,-1581.7484540848145,16837.65160492354,1751.148400903718,1322.9625554171441,314.71985552213755
1888.0,-1868.0,16788.0,1738.0,1366.0,304.0,1886.8010125185692,-2040.766904471414,16765.52885547898,1737.4384436042112,1371.0789786229875,289.99731254677636,1819.5935372177034,-1858.4614386338155,16821.633016746106,1745.388268775605,1356.669443045948,303.48876831061926,1910.3959230525609,-1872.2461439408437,16743.420706089524,1739.2613516846177,1364.7911286177582,326.25104785611063,1986.5308251426397,-1823.8235358143231,16767.733379565183,1747.8088252063644,1384.5502071874469,298.40534099564803,1784.8321835897655,-1918.0387557859656,16643.5916126041,1732.0002756215042,1372.1804741691103,298.9608828267049,1945.375370022883,-1809.5679938050669,16742.74044091819,1753.6782884897186,1357.3914152677517,292.02090829511525,1885.19058263856,-1828.0177568779166,16874.90785087232,1722.8362803464568,1370.6137541601274,275.88747371597395,1920.8097810295899,-2020.9315795766106,16831.614705866792,1729.760187467283,1373.0365381643796,296.19292381373157,2137.1764347321723,-1854.5683568944162,16842.174442046733,1728.6624782883705,1370.3933318469683,304.30641881571427,1763.2227879944865,-1831.5388010077324,16883.566043723353,1760.108096171138,1335.5099439075032,301.83280725304184,1809.4296707895896,-1965.644708282093,16670.77289311494,1733.509170351377,1381.2329879536499,311.8174462906269
1880.0,-1836.0,16728.0,1709.0,1315.0,284.0,1999.2627706412582,-2072.3173040358392,16578.41304940253,1722.0054058565631,1304.7190159629088,275.2228692878201,1743.2554626967956,-1780.724711913126,16694.55550555062,1713.1743701059022,1306.5885240197501,284.9371891179729,1951.4593171627494,-1507.520118708754,16840.016965451534,1723.0851306246198,1313.956562294557,287.05125359728765,1681.606559811224,-1917.5714722048651,16730.61218231382,1731.9345467689159,1315.919094766205,296.8817015705902,1928.0884893750365,-1845.8329871068208,16846.98634562387,1697.1894066170476,1329.1455114051985,289.59257552541175,1924.6157447821615,-1844.1312655382933,16750.175032249517,1710.956620018626,1320.4292991914501,282.6980174680035,1873.8352993354667,-1830.70734689958,16720.411161161723,1702.7142390891122,1297.3140552471552,274.1564517022003,2013.9966770495935,-1928.9941570708093,16700.124799174017,1706.1573936001346,1314.6747007152042,291.9348486802239,1907.4048493222372,-1904.4577941130917,16675.02711289267,1699.674219785125,1303.7707340342283,272.8416017311436,1867.3699599266088,-1874.5472146637128,16725.644008891646,1721.2703683997897,1308.545803068531,284.6108546105206,1977.1909782294292,-1838.1446952716205,16648.48144695072,1705.8879892878813,1304.2573465822845,293.5035903976426
1844.0,-1900.0,16888.0,1665.0,1300.0,332.0,1652.3077736802784,-1795.1228217911105,16688.559823433094,1667.239023407802,1310.113271173738,325.2945063747959,1883.6122235855682,-1882.5573814457002,16790.710086645824,1667.0614303979642,1304.3578284994483,334.9801153160104,1678.4872133042309,-1877.69692427619,16641.633939988948,1670.776626749202,1296.0327925290737,341.47181342784455,1745.738245653637,-1870.8307496708626,16832.87493573718,1662.5213137234844,1275.065051690288,324.6862960865103,2017.158218684176,-1866.6271170698994,16764.34551313439,1671.8942315299803,1284.5167843320014,322.732972132021,1934.464993963499,-1986.1789837620238,16865.74432619821,1666.0334866789997,1288.62885715708,332.65993410487687,1856.6426361782262,-1910.7748263102653,16750.1892360347,1657.7107347003218,1302.6571451851019,323.98124131273937,1726.6496479824514,-1930.7666286618594,17007.60850530271,1665.290974399105,1293.2572970897413,341.56927503191065,1651.5874620858722,-1934.8338312994413,16919.98470570061,1674.4839566904716,1316.1234404646352,328.8845393828148,1892.6655686859463,-1861.3993088735067,16911.265869512317,1637.386884002913,1308.9692373260798,324.6476606862045,1981.24531754314,-1923.9522520213302,16824.57622674274,1671.0952245951976,1304.4165640672193,338.60545429167195
1680.0,-2044.0,17108.0,1931.0,1183.0,254.0,1666.1268244635237,-1962.0261979412298,17131.075199063536,1937.6747694143323,1188.7971761769272,254.7742260038626,1559.3779820483305,-2027.1687945315564,16922.26447854007,1931.138224302586,1184.9288512735077,264.9688967254372,1638.237819382317,-1989.5151257599903,17176.07958767245,1941.98685626399,1188.1895076933642,231.02753366011598,1729.7634563046236,-2095.0144461941836,16992.568006926114,1933.0110320605932,1173.5164888200147,263.3291933752414,1636.2992431750627,-1911.5017669001686,17286.979864559682,1939.6991701276834,1189.427197145224,251.98516017354157,1643.0276272188182,-2031.5439097319515,17167.57791000417,1935.3745498016772,1193.9425398715084,239.40974801649207,1794.501443114334,-2249.5470249081764,17103.449099621812,1930.3898611366728,1189.9336615014531,246.53373963238172,1601.0399342719486,-1837.1782488668157,17082.48186735113,1925.4381112808148,1159.932361531718,246.84703821099853,1788.9871327338806,-1958.9714019909677,17145.079808747156,1940.3695641943643,1192.5011544691802,237.45003064271654,1809.3497167397475,-2219.3384807491584,16959.939605706113,1923.8530944168613,1166.1435183650478,263.7068694243928,1835.6263024992022,-2176.086585016773,16972.410202898605,1925.3366539557053,1186.0725681794718,247.84332811505172
2016.0,-1396.0,16700.0,1480.0,1397.0,319.0,1891.9546914712391,-1345.762057563073,16833.227544999554,1463.6888556088393,1388.4007924296682,322.1607806997216,1913.50083472152,-1322.03788343018,16826.817932901755,1482.113277362743,1402.3697169963507,322.09024968212947,1905.4729818840112,-1356.0323385903864,16694.734751415617,1480.5985567720436,1388.7544134055038,316.9857203636045,1937.0005557534014,-1432.0321765092747,16737.666306440937,1491.6086937019902,1403.386744822117,347.7636661214811,1971.0573102386165,-1284.825085179686,16769.625738959432,1476.9033946072452,1397.669573204854,321.5022780801422,1967.446108041714,-1446.3203872957147,16740.85766390338,1472.4220752247431,1398.1873584824534,345.1208157514022,2102.7499570780747,-1362.8177359188355,16791.036511168044,1480.5330197669634,1398.3470201590744,320.4718592908432,2072.2171129698736,-1430.5156811325542,16611.67890235496,1496.1909383050306,1387.6292659186097,326.0086362885276,2058.373696859688,-1334.4095544837617,16566.70668902422,1469.7572170951335,1388.4137253682782,319.447845986428,2019.3635200367003,-1206.7333024177624,16779.875154760623,1472.6464456984083,1412.852445299933,313.1333999274719,2156.6145533983827,-1443.6323548945725,16662.241449243364,1487.290451147234,1415.3783499343588,326.69497791173717
1752.0,-2180.0,16864.0,1551.0,1394.0,337.0,1629.1540532015772,-2246.198739182511,16720.873558527135,1559.486712924742,1402.3450792851602,344.4607772343758,1732.1160176173012,-2288.2634240871125,16841.767663669456,1542.0297487110674,1395.634066032238,347.1668288751978,1751.1368779631298,-2259.780036610907,16836.661170789284,1539.9907515153766,1378.8903745176276,330.8477871084239,1927.321245644637,-2182.4628315805257,16996.233121921327,1549.524920791948,1393.5018972963362,346.29034876328365,1640.7402029292505,-2229.951855571316,16983.64124681793,1554.934603781414,1393.6083516117349,336.8851686443994,1965.7152034717728,-2201.2166520455758,16909.788105462467,1554.794166022596,1383.531164581745,365.8032679315022,1941.790706148592,-2210.473353659103,16754.582284654076,1559.14561954948,1411.6595159268456,338.9714213549186,1835.3487273272667,-2141.2146403932156,16917.6348855612,1545.8144849727153,1400.6979834790213,323.02620845664126,1723.8029164466539,-2576.839803113794,16746.530604551142,1549.6530465483997,1400.902910801278,349.2227784406754,1627.5524378825442,-2091.031541139568,16880.9565666937,1529.5295216245531,1395.7533161180481,333.77305197132864,1729.4167793577194,-2201.9738936854455,16648.81894057314,1552.956012201677,1402.8544926111008,317.04105644133483
1868.0,-1804.0,16840.0,1728.0,1311.0,287.0,1788.1516848410495,-1787.7128057186376,16912.311355258404,1747.2132954134015,1301.4870524958774,276.0263047556799,1792.6252688064014,-1904.3882390759657,16817.524017519914,1730.7411109494226,1299.1645398585936,278.63169509842567,1797.0409038065357,-1845.1551349969213,16749.449106130516,1746.0482947913927,1323.5571673498428,305.85509359053685,2011.6532226121162,-1771.8081524234212,16870.04250429586,1720.8934944535072,1314.9486255046645,273.893478344653,1875.5539575404885,-1823.4023163588356,16688.20198015004,1714.801245536765,1300.137863020988,282.4231673422326,2051.4817185523,-1872.058163144808,16697.67690802436,1744.4976452807061,1310.3466249860242,291.02616330148174,1825.5707608949629,-1588.6230940768605,16710.591730574015,1722.917051164532,1319.4597966405665,298.0474058303126,1906.0193276945909,-1756.613497480233,16819.95656884275,1712.2461536919836,1301.1522501393395,281.25916188267104,1981.5955681846153,-1825.8496332432455,16745.584276005517,1707.2969932434835,1308.0995400412735,286.1461318772496,1923.6568628794669,-1884.7350344228685,16851.63455907954,1744.7903697428324,1293.86425937644,291.57978324661696,1818.1438131681468,-1956.8668336295127,16844.30168526061,1720.6059983256719,1294.7918128717884,268.58289041720116
1888.0,-1776.0,16764.0,1728.0,1355.0,263.0,1934.8417665437998,-1704.8971446193298,16904.63763119934,1740.088582846376,1347.836263696086,281.60565568101487,2128.6933162418627,-1770.7275670810209,16735.006833726657,1733.587578855888,1329.7269985976275,249.81444570418535,1799.9789781545005,-1805.9890075721637,16779.808465640224,1713.2317783284423,1362.3099081580694,269.7080442776296,1719.0461587305397,-1874.0325961481715,16692.20629229842,1730.0048764509907,1342.8435611283394,264.55315537680946,1998.8116759686811,-1803.849367102475,16602.987413023282,1703.726363817617,1373.3291335321019,264.9212471716685,1887.4138659212413,-1771.9152959799644,16794.17948292672,1734.4533366469084,1353.465731950393,265.36068978791207,1975.6707155588492,-1790.595330118681,16864.13956387921,1733.905631640396,1358.3042703776607,243.61574355840057,1802.9184803693074,-1856.9552284286376,16791.5133462874,1725.7569321921746,1352.1613831951288,273.33555323382296,1982.931982007292,-1887.7251293556506,16888.492418614085,1709.6225308819007,1362.1213080595014,276.2151523979488,1924.1258977219427,-1732.999572030925,16671.43470996496,1738.8413335425319,1363.2243324797066,258.2175318944524,1851.2685077946132,-1626.187588021386,16640.100968648243,1730.1757485314415,1367.7802015634718,252.2908068089166
1852.0,-1816.0,16800.0,1747.0,1311.0,294.0,1948.9806398330165,-1790.7439738633288,16882.052720479518,1735.963564764187,1328.1673355766277,299.45928921700863,1951.6510856106565,-1949.5300333525338,16753.12817674941,1735.7528746212301,1310.5473997800655,284.4403764862829,1869.4075309933974,-1956.6560762862086,16823.605858367882,1755.783382779015,1320.8520358475178,306.47994783867756,1853.0495649697966,-1758.8329697441002,16928.575603722995,1754.015535450201,1292.0300513094578,307.6260292252455,1773.0409136632888,-1565.1619244550052,16725.437169026955,1739.0386364673593,1314.255536657351,294.33639813323225,1879.8231952617016,-1873.8040050449451,16952.967422492507,1737.6358258577227,1311.4193064818228,299.04669758128927,1977.4483590152452,-1731.3920321197832,16917.329378600894,1756.4222083272243,1313.26733354518,303.22844897368816,1818.216500927648,-1755.2062328828652,16815.629421702753,1741.7349532742542,1310.3814637341245,287.85168694170375,1827.0639129839758,-1746.8691330955096,16747.585810073786,1759.1066658564127,1322.7054006968224,310.9349299456204,1753.8952757173136,-1943.6408812255702,16825.086967600237,1749.4044947098123,1315.42271320421,290.89684295904897,1837.1710832418487,-1892.3792878885629,16853.367550506726,1748.8832625177904,1293.8023719316193,295.74802816652823
1836.0,-1844.0,16772.0,1775.0,1348.0,291.0,1805.6494290671942,-1739.7468787033768,16716.42972731558,1755.6204496722912,1339.290157606809,281.91057304821254,1861.2330861993835,-1695.5352273967555,16896.408039314134,1783.4410549951822,1354.1855373742171,292.6430260941012,1841.0265292688694,-1633.4821301858342,16694.9973682483,1773.2466871178137,1328.816530242117,289.97572138515034,1651.2026498597131,-1929.3320734526865,16618.0080268334,1765.3925888679917,1355.7258182821777,287.37640498078474,1884.5401081859181,-1931.6079572580038,16951.902018340228,1779.1910360103711,1341.3439554458746,290.8443724009,1659.5837352025485,-1888.019520769232,16630.79697948211,1790.6838519723137,1340.879938448245,299.8971297314349,1874.865129062226,-1744.8223503932625,16759.88920244374,1767.356909116972,1347.6078392030183,296.6677257034902,1828.1106728697232,-1840.6973661930997,16672.908933603743,1768.6994938163873,1353.8954875788904,284.9292210663581,1857.9742804243635,-1788.9394779436739,16656.028733632906,1772.7474381190837,1348.7358886111308,284.7669984914951,1837.7716337721256,-1709.251193750361,16814.050938151246,1804.9554089420112,1363.5004970240188,296.7871774102652,1948.4833362404293,-1890.0973500752689,16837.033046364555,1775.3158223694738,1357.401971847398,303.78995171192497
1924.0,-1888.0,16780.0,1756.0,1337.0,328.0,1947.943271713314,-1800.8981798551858,16701.491546654855,1769.8774581439388,1340.6851242444443,328.3733365194772,1881.4337186948108,-1959.8202793520345,16874.254599653497,1769.765129459282,1340.0936783505492,323.19061869466,1965.8273949787942,-1861.3800204102836,16723.648931860454,1746.7703978162192,1351.0296520601566,319.6762086510577,1824.1119022045095,-1811.7842409155,16863.345024056947,1756.1629768291275,1339.2326975528736,326.2556811140033,1823.2807896610257,-1815.8904890709325,16843.76176311972,1754.3566839319085,1332.4907563085037,334.7650164041504,1951.5251156503443,-1831.8609685487393,16762.032042160867,1754.290196568063,1331.047704971716,322.7492706894833,1963.378404534606,-1911.1173240844726,16793.143891930784,1754.7295781421917,1340.9518415677576,339.33213567027747,1943.1275895202916,-1866.3559043791,16955.409318153983,1743.8200769782657,1349.3585834717148,329.2162109102842,1930.1662733077815,-1787.2869035821466,16842.500206701665,1775.2445022431982,1350.2967266971539,318.5036499653452,2006.0552853718555,-1856.1637440321474,16932.574124331473,1763.1091498286219,1327.629949569567,327.32006756631847,1818.4959726958964,-1801.9483604688944,16788.534960413897,1754.597656172742,1333.3985906499038,338.11433612220594
1836.0,-1848.0,16756.0,1556.0,1483.0,293.0,1771.5552053138206,-1716.0141970039992,16757.4491846879,1545.5808499264058,1493.067169079406,284.4427980803631,1702.9975342969492,-1800.7432383402697,16566.280819054406,1551.3971207589632,1484.6259252525756,299.58371067816495,2042.1438668229528,-1898.4234421525052,16551.842728062576,1560.733226054525,1482.5071036883273,303.5778171068763,1827.7457142503229,-1746.4386341192717,16723.844565163185,1558.3693235735784,1485.3360232945654,289.997589103082,1753.0389213357087,-1806.7025451803852,16716.664161777953,1568.9595020962172,1483.55401409839,297.46253219350234,1880.0768693934635,-1683.7384699826152,16791.22231745811,1554.1899789216995,1495.4489952660144,280.6036158567499,1912.398243511535,-1825.1631266116522,16871.570017265323,1567.9698939079983,1484.5539207814038,289.77995131213714,1721.2692991428385,-1818.4306480422945,16934.18138909803,1573.485409869712,1492.645415144697,300.19853401777056,1818.8197556238188,-1792.534118940362,16704.79430743817,1543.0560662809105,1471.1167134591815,297.3159915624269,1655.6156789959164,-1744.0292713065983,16793.050889747276,1570.2005960157867,1491.3950339240225,292.6720779876753,1668.486923254224,-1895.1590892540112,16803.534084986528,1544.3601656358992,1505.5083347317511,300.41027374706124
9156.0,-6716.0,8436.0,-32768.0,18123.0,-10870.0,9180.0168545992,-6772.841528684049,8520.094793606146,-32763.419523928846,18134.786325680056,-10873.66385420769,9205.96998545625,-6611.884156615558,8490.803067468212,-32787.192317595756,18135.298604137442,-10860.67519716772,9059.405688608387,-6586.898361578366,8392.524215983896,-32764.76932928124,18128.77700787108,-10867.963461533513,9001.396628442684,-6739.293135556711,8406.187722729655,-32778.82583448688,18131.25687862018,-10854.841986039162,8936.629373722748,-6740.717903779019,8494.435904546219,-32769.04809289463,18112.86791210363,-10872.93677196182,8994.825855108164,-6877.364307514528,8461.55036751457,-32754.291939957602,18150.06772412341,-10870.254423163597,9196.595961257952,-6607.545492685463,8303.629693915524,-32774.766304752025,18121.641170094597,-10869.858042502263,9251.292004362253,-6628.269916795719,8500.72619826545,-32759.329463085618,18124.744553480923,-10888.872380917952,9182.176450578992,-6796.01664589621,8451.023299212837,-32773.30928828501,18132.28794138759,-10857.786403585547,9271.180537533291,-6580.040802523222,8471.14091257058,-32770.392467001584,18130.871070865043,-10858.869006104416,9131.004263043314,-6617.932263393263,8408.130285698535,-32760.179486785764,18138.4582616291,-10891.169730294798
5596.0,-2716.0,18640.0,-10595.0,25340.0,-5558.0,5610.790467611585,-2697.901486609233,18672.258901994945,-10607.171364629326,25331.509621519326,-5562.531168959806,5553.812292326856,-2633.2673486169438,18666.98956529254,-10600.850699060507,25317.530530558746,-5568.507356449203,5433.642498065374,-2738.7198185712405,18471.65480244538,-10593.289709818748,25342.73560177114,-5547.9415839362655,5630.816653287479,-2768.5042984462016,18588.929979826567,-10602.192439244871,25344.48654165631,-5561.10277997683,5658.871540643269,-2620.6411629111244,18786.207780663455,-10587.657486335975,25341.574110887363,-5571.387550988094,5560.1705837690315,-2696.151930621136,18476.794470096578,-10573.058208910521,25329.955222982982,-5553.51720151888,5645.532855657249,-2527.3978045237877,18531.51492892197,-10594.369092951694,25327.9683607731,-5546.831655545218,5613.852758165769,-2897.7289141018027,18634.45854642059,-10582.834513192964,25343.38363457694,-5561.566839410108,5594.787410194433,-2705.433552262912,18696.743073879064,-10588.462379098919,25350.5741863514,-5558.8727167195575,5619.856102487915,-2592.0039866851894,18567.146758589384,-10581.29627853369,25336.239381130174,-5559.4845957402995,5606.881448497757,-2740.2800911589025,18631.03947493329,-10594.81548116577,25347.26052135451,-5561.6405142398
-4280.0,-6452.0,18896.0,1758.0,11109.0,-8130.0,-4358.137294633031,-6443.049140162527,18802.39868470929,1770.0509862569452,11114.333495287317,-8136.103185527329,-4131.6310871849055,-6499.720771171631,18984.06085172816,1773.5513366499692,11101.736366926742,-8128.515201242322,-4227.704704150615,-6460.879738512226,18848.560950348554,1758.2339101470684,11119.18095746138,-8147.758384293936,-4213.26898207265,-6673.932552125156,18766.855254111462,1776.678350329776,11089.54546038341,-8117.52060125994,-4276.350550100548,-6469.041694097234,18876.54954972666,1748.4029501891127,11112.562868405232,-8129.249717854674,-4285.7268202109235,-6528.34437487114,18941.348485191156,1750.517819537182,11114.04933792056,-8115.871582023398,-4162.576121361926,-6314.98105071783,18683.833264987188,1749.180181710464,11120.811149086641,-8137.670278580139,-4211.878949031985,-6216.965413891227,18872.464130549484,1773.1579965386243,11109.198785292718,-8133.096705717142,-4110.591970265727,-6561.697960124834,18898.443497452965,1772.869217019058,11114.775437345226,-8127.769912950219,-4300.790665541553,-6516.939509007244,18693.084300226164,1771.2560964421596,11115.781204181734,-8152.600698299367,-4536.32319033533,-6527.779597776972,18711.221290980775,1744.1969815042132,11110.827737993306,-8130.957859839875
-2336.0,-4536.0,17692.0,4168.0,-3517.0,-598.0,-2134.947583901125,-4498.063173819238,17741.890116801136,4166.710618899247,-3528.032122903343,-612.0150470455434,-2384.763418745195,-4520.168770264777,17838.522863983922,4151.942026741947,-3528.7243934411867,-589.9206130079066,-2141.5370621414163,-4783.626951264204,17660.055144483078,4159.191320127414,-3510.4565457191516,-593.1472933539611,-2270.4142590852616,-4548.695268935714,17635.770771764244,4175.7267125323,-3509.332010678645,-590.8233163298587,-2472.4373307330275,-4712.837355605477,17866.78338463127,4178.70921908951,-3521.407118578563,-588.9236462927186,-2122.537323388671,-4568.749136853325,17891.881112866187,4161.036901123459,-3525.0028134381796,-594.2373316120207,-2201.995997028301,-4660.028965071113,17801.54516330013,4168.130517083994,-3534.2008905173116,-584.3080857285739,-2387.5495541038663,-4398.273719080284,17780.84757403404,4166.303536903222,-3510.341819594498,-619.9532982581047,-2190.917719912604,-4466.635584773039,17755.569149001334,4171.147822630319,-3524.5471624247875,-597.5381048672763,-2537.7246409901236,-4568.57121606252,17647.844137051772,4164.549626119718,-3494.2139672671015,-604.8382441791834,-2460.352495605417,-4474.558724955915,17514.803417873056,4165.626611630682,-3519.668058552169,-598.4428205172919
-2444.0,908.0,17156.0,448.0,-18248.0,8663.0,-2377.8277621860802,1026.4075233684382,17002.023200747386,437.23415996159883,-18246.82146724157,8658.991574706773,-2464.8597718559436,867.1924678005804,17214.382550888105,453.9824520549148,-18259.88195738185,8657.318953844475,-2540.7736621890776,921.0006041717288,17110.75375899491,459.4908843591043,-18258.913122603382,8664.503255117903,-2387.3353080968136,823.522382674586,17209.94992848538,452.4584230636475,-18261.17950546911,8661.049217982281,-2494.2328862240633,865.2753207225852,17095.25112583379,453.1493690278853,-18262.129200628435,8660.276085978598,-2402.6117727606047,1069.7739368940165,17216.041740890527,435.06566626859114,-18231.573672482627,8652.259828925002,-2506.975282167525,769.0958042198214,17111.81365248079,441.3914618822526,-18246.52763113427,8681.827170306555,-2497.0484843496374,850.9756183121852,17123.131496170867,448.6642567062954,-18251.40637122122,8671.850812306038,-2514.3016276631524,1010.837281465612,17243.957160509526,451.910656508557,-18238.46306855842,8668.294358240157,-2394.8907871525494,961.8161989411332,17182.46531248114,432.10923690871164,-18246.804568513482,8674.949618524954,-2460.6406550605548,995.1156436567677,17257.746571299092,464.6920989917937,-18243.37680689602,8656.74321346773
-2376.0,-6980.0,15164.0,18004.0,-10517.0,-1073.0,-2314.745493411168,-7010.5524289748055,15159.43775323154,18003.522323916895,-10514.855227835622,-1059.5273258225839,-2452.4113878936496,-7012.8006369014,14956.51595601518,18014.519686344982,-10505.391050988625,-1066.9459924838009,-2592.527870171787,-6790.346885807837,15049.193656921096,17981.34678425557,-10498.885285841787,-1064.7413065137803,-2386.4534179795296,-6949.244279084399,15217.831037122152,18006.929454937734,-10516.9446685663,-1073.207900588968,-2446.9530343724145,-7069.107301533116,15129.249200593595,18005.190670862776,-10514.786584151205,-1055.4243469883074,-2340.540974201387,-7026.8172299164935,15274.8843495253,18011.35005053606,-10534.051584884795,-1076.8243077012592,-2426.7292966281825,-6959.492525338788,15024.80191745839,18012.488914174202,-10505.594686612523,-1074.429961330437,-2269.382216487422,-6971.3532309356515,15179.067360290386,18002.262146420628,-10516.341452308812,-1071.201558253043,-2341.40360883068,-6917.669876931649,15213.451957126723,18012.551455827925,-10505.891998775598,-1064.4336926325702,-2449.3495814688495,-6995.88082009149,15300.742311428381,18001.26218757431,-10517.74076679634,-1074.0259664641267,-2458.025315109745,-7031.906740860463,15088.005181894221,17983.524503592464,-10531.102412680504,-1069.2761460809936
796.0,2872.0,16396.0,30297.0,-5056.0,-1543.0,760.5794252250432,2839.4642495085636,16415.412081671773,30268.47152859071,-5055.437912872839,-1546.9743622250178,711.9964556480145,2970.870220403612,16409.826049164185,30279.5402515038,-5063.5137561421925,-1547.3896626503667,989.9234008816966,2923.175473567062,16436.324493006243,30292.067571428826,-5055.314274296288,-1520.6511106671644,637.9889936187008,2918.3151713706907,16446.17912187296,30304.39978064709,-5037.1873160622135,-1532.9383892237954,728.5652955713404,2790.933719507911,16482.638989230756,30284.935457397096,-5027.67406065385,-1534.699640972026,854.4338736413346,2921.126873775845,16354.768183444661,30281.192117550356,-5049.284146781969,-1531.0920722009528,771.9897814163194,2959.609809067562,16369.728379068272,30290.525587193584,-5050.484362483718,-1542.2075468495832,715.6467350910319,2870.2735830638057,16330.418700271466,30312.20522431602,-5051.04569775347,-1550.1319815568788,805.4666622936431,2918.2628355425777,16264.48694060965,30297.982085352232,-5058.263813498798,-1557.6937657862418,806.6702694262269,2954.7194104593696,16287.619309366655,30287.347659554733,-5066.276781526689,-1527.265247769849,765.9587635844855,2878.962489101264,16260.054395404803,30289.59911115193,-5067.698585786545,-1547.3874032325664
2376.0,1216.0,16380.0,14159.0,2107.0,3907.0,2373.5159863087474,1240.9503734307045,16276.844058619517,14154.781801290872,2101.6009641062847,3901.9989253388867,2450.5971851028785,1174.4727416663638,16495.502730067194,14155.070970698862,2097.879831242074,3910.5571026597645,2352.610735392299,1316.1315519461518,16445.75873709988,14148.531291864983,2115.32844726287,3911.925692420581,2510.0251446112034,1210.6774811088023,16408.868720453916,14141.219252141387,2103.811424626467,3903.6545033574216,2344.7373309602226,1355.5956750735027,16433.68418863766,14171.60343629995,2116.780871337808,3926.091908800847,2403.475189153459,1190.381896750124,16395.888822644403,14158.511323746205,2104.7593520149217,3910.596364193659,2359.9475138723888,1047.7479112875694,16390.77113211391,14153.377641407094,2101.7545552954934,3915.355900992981,2551.6382989626995,1288.6133289759189,16408.747959064272,14171.92721243066,2110.9627969516887,3897.6982937612556,2392.049263963248,1242.457870461187,16508.0071336108,14141.885024461102,2098.1322093043927,3910.1317824721145,2255.493695583263,1258.8794885142565,16266.476982904813,14168.718856851345,2113.2345431652034,3902.364601166521,2418.0955376751954,1188.2627209618486,16286.912635770623,14162.368086157841,2103.1916356761685,3909.8570884968085
-136.0,-1500.0,16932.0,3208.0,482.0,1596.0,-196.94374296421375,-1549.2654270067387,16933.094592984242,3196.4469037039066,458.9950962950402,1589.4244328870911,-358.4227781622818,-1478.168536720837,16890.931622960405,3207.727787986617,473.8800683658293,1597.3749728899513,-339.8571804848571,-1436.255048912676,16958.115162012946,3221.7072498852094,484.60639833003944,1608.9387963609438,-171.7840959165376,-1502.6353529012401,16989.563075538954,3216.248174958848,477.88526651121776,1598.3563089261584,-154.58390570044904,-1547.4336605867509,16929.30342902562,3213.4332313501127,485.2722157225871,1591.324514376605,-186.19551858867544,-1485.7341288727007,17004.725968053805,3209.7431133572013,484.85502231560366,1598.781374667279,-229.58362421608638,-1459.1883767182928,16995.47566352587,3210.2198425589427,481.28747168842574,1591.3814604418258,-40.51534563156267,-1552.6999282367328,17073.36187887997,3205.1647995525077,497.60533917878223,1609.4116050338173,-75.69040883580195,-1488.17305647743,16793.21826996372,3206.1548600598057,498.83092600789513,1578.8521808532425,-199.3624092830635,-1534.682940766222,16898.9444805371,3204.840529655476,484.8281169013837,1582.7136612044126,17.8407027974998,-1360.56411093619,16877.9351649514,3231.7562557047972,471.4673431213923,1593.0815244619807
-2288.0,-4372.0,18232.0,4702.0,-3677.0,-4204.0,-2219.5748445719246,-4378.286377062077,18454.721058586,4704.2239586005435,-3685.2731463005657,-4209.351948207836,-2066.9417817418107,-4102.170425730608,18182.984728432722,4693.110653803927,-3672.3235843895523,-4189.201813681655,-2196.412744994955,-4423.4903753077,18248.690497354404,4720.425847611032,-3676.275995779705,-4204.359699991062,-2379.9965232672143,-4609.53978327228,18231.165053053213,4698.508156002698,-3678.052716513864,-4202.296403422025,-2474.9063892448066,-4336.770144437856,18141.699257627806,4684.210395042984,-3676.075533203257,-4199.182286860159,-2178.85460235152,-4496.298363375602,18248.01261113366,4687.396608217422,-3672.082686744609,-4192.793992837513,-2396.3714364093985,-4415.684701999882,18406.213242971367,4703.347581926281,-3663.105783369798,-4227.310846174592,-2162.546324859061,-4447.309603489982,18007.947873668094,4706.927725317554,-3681.916330777826,-4195.285358580357,-2316.2791751149243,-4370.933075449579,18238.836632440067,4706.733675357548,-3693.486967616191,-4230.199610430561,-2214.930796319895,-4424.826430374214,18182.60486785044,4689.39221416441,-3684.059819159454,-4190.753996147034,-2339.0270453087414,-4463.6358393862565,18165.48213465813,4692.847940243083,-3690.9660280567196,-4190.446370796216
-784.0,-2324.0,17904.0,16201.0,-10191.0,-5283.0,-567.1758868348008,-2319.286242056563,17854.760849365528,16214.22900292336,-10187.928377810427,-5280.789611958532,-742.641936964113,-2436.075342702968,17708.483248943976,16190.122202638184,-10191.144207713738,-5275.095145077197,-630.8388860681251,-2355.613450032123,17973.508553507003,16195.496574402981,-10192.018280925518,-5278.021748491008,-710.9634415106268,-2166.090582259814,18060.093034799083,16186.913334725337,-10179.193207760065,-5283.94510236533,-699.8188377259034,-2262.2985098781014,18054.445931319206,16201.913743017536,-10186.874569875752,-5279.392564415356,-786.2732216458819,-2525.773922394074,17952.011145510824,16195.112709342233,-10184.00824467553,-5293.363151707781,-725.9683366840873,-2448.6454849685642,17788.73040927966,16207.971685451961,-10187.119902892746,-5295.621278266412,-801.3401155693932,-2333.9344436798115,17866.64852212804,16211.228445838311,-10194.568334548296,-5287.50285197727,-962.4289050599926,-2324.7757754645017,17852.409090281173,16197.410548762673,-10184.738696771277,-5288.4577406132485,-908.7112483644125,-2319.9685442641166,17957.94433965388,16199.789122188824,-10177.090483109598,-5287.74161687223,-861.9861042420471,-2163.225504779977,17935.66401082766,16221.424988951461,-10190.949995380695,-5290.258120962759
204.0,4304.0,14520.0,561.0,4766.0,-332.0,125.33440180319214,4242.262504128975,14471.317199335685,562.4598750279213,4767.361254869696,-350.69926688376466,303.4052420925194,4362.446601992902,14485.184731531988,575.8350814350213,4749.686594125838,-332.902455441813,269.61018643329385,4253.610148498264,14487.74972501843,527.5215544368601,4746.84133189053,-341.10255358644145,198.27442012672108,4307.624302539546,14378.549065930094,566.5750702261406,4755.226681210474,-320.6529062290689,313.69399962693865,4127.759942914938,14624.726097779909,556.7140065128773,4767.3938612270385,-330.83019344105315,176.07356821576337,4499.716358927852,14538.219892095629,574.6627473535432,4781.1008529308565,-317.88238338632976,274.9178679986051,4294.612073329481,14420.374754463968,559.4943766025821,4767.795362565852,-334.40469862705777,189.775440553492,4245.741564040416,14436.25612310635,545.3793924503756,4767.894069290634,-328.17396410612884,283.57901682644473,4137.842244056864,14673.521934691176,571.6679773796939,4756.396398847611,-335.5842130636433,249.9432438066939,4256.506015611297,14590.299513322168,547.4055418462599,4762.684283608718,-339.83349708195306,329.5872959246174,4362.319199361819,14552.431724087246,548.1485122647133,4774.355606346023,-342.2993124293689
540.0,1384.0,20320.0,4341.0,1198.0,2704.0,588.869418306132,1603.11813948688,20231.730797891098,4343.78800463114,1197.521974104817,2718.1397218982133,457.01797215971715,1300.1916599154358,20185.101953778823,4326.3491884556,1202.4923837198435,2713.7011919243905,512.208649543456,1436.8688316556854,20554.324096456836,4340.652781819827,1203.4627306552645,2699.3851290973225,529.706880016163,1304.5261215428975,20181.82860955318,4323.091771327054,1200.436406576456,2711.189241411329,355.1521345636193,1395.2972424912086,20399.547896948396,4340.587595039378,1199.623448766385,2712.6004573293694,670.762849077687,1472.1411474868844,20071.16645575401,4347.985876179404,1189.0384984560383,2712.885113359108,563.5559247933085,1378.8642886426337,20382.414246873373,4340.662131415056,1200.6788348860127,2682.236952890468,577.5136181485765,1426.5554504099698,20318.389958999494,4343.432246717167,1208.8974589219583,2694.4297190736547,512.895654732191,1337.7516796349057,20465.146185562557,4332.7345645796095,1191.9210509664747,2683.8709163983885,565.8448914679684,1326.3509955610598,20188.648738812935,4339.588656182173,1184.3326934164922,2714.782541649146,427.23895077151906,1448.5174160280262,20276.15284098668,4338.892352900484,1208.735924802384,2696.638743906398
2336.0,1692.0,16412.0,9074.0,3177.0,3348.0,2383.4091170667316,1598.460916584239,16500.34939120247,9078.053356222279,3189.081644397738,3359.1653232745566,2517.5084879571045,1663.863248082546,16426.18163390131,9064.893852691614,3180.051130052953,3347.2310322810345,2351.9093576021505,1848.4639236090522,16254.041948704507,9073.176321107047,3186.1212655116246,3352.9772701521115,2207.7535175133094,1782.0813230571864,16535.855868919574,9061.708689742572,3176.49160379079,3348.8985439857224,2366.580920515908,1559.909655300393,16353.3704342785,9070.114979318516,3170.7097631176493,3351.898930424305,2460.3486654829258,1737.4061429493834,16442.08884503483,9072.685540796268,3191.948289055641,3358.5632912091864,2488.0458929246,1649.4040609260885,16511.53845438478,9060.543630100285,3166.4212561959835,3347.221659969344,2500.1079061676865,1654.1703152209557,16252.344486691461,9078.350775181201,3184.457060550652,3335.2947814585973,2492.5398328594347,1728.1443716747385,16372.744535641024,9067.24944687723,3162.4005352018476,3349.460058482753,2248.9011699075963,1683.7340656409751,16265.04911218156,9066.802425039845,3170.9354758552795,3353.473311325792,2388.0233710965617,1710.8082351090702,16313.763307653806,9060.628308545993,3170.4691208756985,3350.0402534224777
920.0,4036.0,15200.0,7668.0,3133.0,6073.0,785.3249483077146,3916.52723228858,15124.775274275087,7675.692166062033,3143.713594333102,6058.78393588418,889.071295800947,3962.9502512191216,15275.286761808708,7653.0222867954635,3142.8398438143513,6091.616530389057,857.1409299395679,4077.412475659824,15117.677103762104,7671.169620503831,3129.8542893380727,6070.350422027213,825.8870420459673,4086.681039883496,15211.394592487608,7667.152492095591,3139.8566126975356,6085.855530076846,852.8759911521366,4018.430742539794,15066.043036465253,7658.845093265114,3128.1650604303145,6083.528565569969,1016.8583469352413,3930.3272356712077,15186.224761808086,7667.672217973822,3126.788308011756,6062.460163531726,985.5666865547721,4226.935257281885,15183.126810368107,7661.950708983303,3140.8891458808407,6079.41756530213,932.7857035439866,4153.687052611644,15132.926149533321,7650.555226909619,3128.4493026829828,6065.492439364369,881.323765454358,3915.085543573255,15107.050854288032,7673.090126422761,3135.639840040426,6081.833372374573,900.0399288076842,4006.106752358834,15257.52650779909,7694.7488894509825,3138.015249801518,6061.317982047532,785.0220318913854,4117.006860639436,15165.89151140339,7663.50603696997,3110.9115375278147,6069.078015104688
828.0,284.0,16756.0,4417.0,2175.0,6228.0,835.0474930153518,161.40331674069915,16815.65374449725,4409.213583027557,2175.7342568960867,6220.033274444595,618.1350361206906,209.7891797493974,16801.679327637423,4427.8680008125,2167.0252338199316,6220.531884488872,920.9458262862483,408.32539142091946,16786.90635025756,4431.654247543233,2174.6389354071916,6225.532879705205,783.7497231097102,246.17512676019874,16663.402604037572,4392.377532699291,2165.944733791046,6231.849413355291,829.2749787910408,254.443471925999,16629.911069730773,4433.456279958208,2174.3301794103963,6220.452622387397,734.6430826944021,208.62847537750437,16731.394016748647,4418.622195346767,2178.2646340913784,6236.233847608983,718.9169257990139,365.8856262157209,16821.017968561853,4419.758536468273,2174.6432875874157,6239.712134194781,583.4757800467125,210.85399240344998,16553.056394877312,4406.829306477365,2172.0607727604147,6227.115933018016,985.9582017790053,122.16324191274111,16761.707042162183,4417.876881032903,2195.914779440836,6227.946160367041,641.0477085766315,201.1270848987271,16752.213667091102,4406.93924436704,2145.0964187120057,6225.285798615681,635.9496826569554,428.5800672023082,16860.828913230926,4427.088053904874,2183.7164879236416,6221.76082010857
1512.0,-5176.0,17032.0,4660.0,2166.0,4709.0,1361.5643480871368,-5224.3319388780665,17044.467671782604,4667.665300553965,2168.1523592006824,4709.0074213661765,1578.84179680119,-5158.7264728559585,17110.117697861024,4644.111851797352,2176.847575324539,4712.487664938625,1447.3032887224608,-5239.983989601051,17091.049180569364,4669.691711761476,2152.0400171724714,4730.452951982786,1566.0118779284333,-5112.238925056514,17020.235884434114,4655.09484801271,2153.1039845993337,4714.205429495751,1356.7743383521733,-5061.460787152417,17124.044812704145,4656.41476000859,2165.996622269934,4711.644474818955,1443.0079153914253,-5119.05165828241,17125.229420650696,4671.495646799123,2150.3752357580606,4713.939165731021,1451.9168653547856,-5281.585570823239,17042.175964120117,4662.697943087104,2174.009614477143,4725.964710757693,1456.2995690183604,-5162.008726699163,17058.86439926224,4659.148492496756,2156.4899671663566,4702.0253308873625,1562.6679816779158,-5066.455551336057,17062.090392922077,4644.629216623267,2164.696613612925,4691.038679237469,1580.3651647421366,-5258.171449597162,17082.241794011326,4671.1108956647395,2165.454335321193,4698.404481376992,1563.9216050345835,-5431.1259637980875,17077.72365407679,4669.976463274538,2164.490435019423,4722.922696088878
4468.0,-2332.0,18100.0,3897.0,1919.0,3592.0,4563.022167164026,-2106.2203270524687,18057.991029336816,3892.8521143478206,1902.3342278631237,3578.5453260892255,4325.105528977426,-2164.6834405512627,18168.124686463925,3911.5314873936773,1932.9757657301102,3589.2747573706592,4592.503463458235,-2546.771716872828,18104.871050294973,3899.4307739464302,1903.168846395431,3582.466854972406,4590.860336531089,-2273.0371662334924,18197.78994322029,3896.7475781400904,1917.1737483619982,3605.419392718615,4551.537037101461,-2286.22634925387,18200.10924519754,3883.691022920177,1913.0064446194765,3599.905894177042,4382.927814733494,-2256.992959218223,18028.50624306896,3898.289210003369,1939.2051054120388,3585.377339544469,4574.5822458783605,-2407.8148611398356,18058.70861211224,3893.873768925666,1925.4778000085478,3583.900112502302,4324.26547509858,-2348.3741418372138,18032.630513004267,3903.1728505360256,1929.9697138327167,3590.610808311445,4394.786183767317,-2249.436217485454,18134.447360405953,3902.374457202014,1930.113043838897,3599.7241761228734,4507.327515060237,-2248.936696035652,18150.2585650878,3902.0349720440604,1916.337791011764,3601.177998544663,4430.925578996268,-2211.6681153902296,18066.2110970347,3904.873920681071,1920.837799004986,3586.446166398648
4116.0,-4548.0,16872.0,3143.0,1474.0,1553.0,4278.99368240562,-4478.920917042466,16822.4754905014,3147.809742788007,1457.2532887280315,1562.190829992153,3938.186878389032,-4450.513863218284,16911.207872210805,3156.7483564391296,1487.022255017426,1546.395118766421,4306.455702279234,-4544.717661010369,16851.837435419086,3143.354314666193,1471.0156751697266,1553.8856045082507,4234.186078562441,-4506.7321664509145,16904.74160395533,3130.638545333827,1489.1529716537161,1541.3687696897714,3982.6818029856004,-4626.10351297388,17097.387393203662,3138.771078369643,1472.334943584535,1547.9072909513395,4100.493748809795,-4578.721210008693,16838.654728869904,3145.673875605814,1492.8770051793103,1560.9943262001516,4035.4385491674043,-4385.21856569033,16755.693829764412,3143.3449148509635,1473.776483213224,1557.7856210767266,4218.0410905071585,-4697.499777731025,16967.651301377082,3142.1956258169994,1474.1921494606067,1553.0692659904753,4141.350543083809,-4631.9400757597705,16850.736496766833,3127.8337921323755,1478.8382329403878,1547.7070033449252,4025.101448698037,-4524.099920594381,16707.982986146282,3120.0959914049063,1490.4295376527634,1546.034400610134,4130.840014060039,-4351.410974045571,17009.22687380194,3129.046713924483,1465.833711620042,1566.9695148499354
2528.0,180.0,16804.0,1748.0,1318.0,364.0,2401.7806200870014,268.84958265121344,16787.13525147548,1746.7645814357602,1322.1268952094442,375.05782921509353,2524.690816314086,208.19466967470711,16816.518235812287,1751.1091955414752,1305.1495827742567,352.80669061496167,2640.3626434184084,317.6891222583922,16694.810680974406,1739.1098751218517,1318.2001780096227,358.8518545773221,2525.6529008104662,134.7835058702212,16699.589560097866,1746.2116254539717,1317.2271416777887,354.7764901993868,2537.8222104985903,-31.142205280929005,16903.832122735294,1769.0150063449996,1307.860121902692,366.19318939412375,2365.553209439747,37.39387883712649,16791.074700236746,1745.630049474523,1327.5747425104787,346.0071320399911,2680.5319680862062,13.08844506294622,16807.80804241692,1747.4858958176333,1330.2262067890817,362.24561877825994,2430.146670386355,168.39591822105072,16742.89665349463,1764.5376663650302,1310.6184573364046,385.6547718073446,2356.777403311527,73.58615143041487,16881.24758321821,1743.3937104646668,1311.2472665709336,374.35468629629577,2444.5399806516284,211.18908010372837,16871.778523346442,1733.3904419269059,1317.0672203460344,365.3279215896389,2384.725602628202,3.573702184604116,16861.76421427866,1740.12999002282,1314.3675710284804,365.1449649565825
2096.0,256.0,16828.0,1902.0,1370.0,286.0,2022.197497645903,145.10648662392146,16855.90037724325,1910.7209636777195,1367.6648124156495,278.01321777078,1951.9282536461708,230.16015721991437,16846.36896127019,1897.9944183768619,1362.7082519250107,289.10598236994576,2203.7317275506425,293.73386946285603,16670.648832988747,1904.9227026038757,1368.2891981032888,295.4553431532144,2041.8660749068522,263.25100050298335,16864.921420393126,1906.1291112828883,1373.4738192569214,282.6519462692843,2206.9334173502843,297.0071554010955,16744.557322669054,1902.1243996209919,1371.8891050066218,286.5422040126577,2030.1692562202325,333.1989895493874,16975.98745743821,1917.7904127433892,1368.9678551130753,304.37725637724236,2144.418765559513,391.2476890195297,16951.67638473775,1898.6110848492062,1371.2123185504313,284.4358819413684,1928.2469020692772,192.073479116719,16704.108312780536,1902.5599686953233,1348.0135428788778,290.4335841249369,2081.9472530821186,160.11895130883588,16817.840396574302,1924.495440422207,1372.2811851843956,301.9648351360396,2200.5356390414418,252.056101924336,16833.295579061956,1891.6113684372576,1363.0144404639163,282.3845127331446,2162.4968590739354,287.5275217385285,16662.348097972386,1894.0117478809555,1370.6545169213277,294.41322393500303
2116.0,144.0,16916.0,2004.0,1380.0,289.0,1863.8941926904563,137.32597224475091,16792.427788891022,2019.1166782656417,1381.5506425679182,309.5420068746325,2259.636380877406,-19.562056062542013,16913.31353747616,1988.5095518886233,1375.0645412475938,303.0134195359313,2206.17366939447,160.77438613950932,16963.832691454005,2018.6361707184,1371.7567033601954,293.40133293854865,2114.770782788301,68.99095848340018,16966.729719877498,1999.6738102094764,1382.7065194902575,290.5026549580533,2129.7229807655185,114.72110249361053,17119.68482790707,1986.662107023761,1367.7722962846922,274.72643752495566,2143.6268702513735,90.46375221130938,17034.32737723262,2025.2578234013147,1369.0917943862446,282.8106391736379,1961.9473026919075,182.2560467251898,16898.030460764814,2016.4136182249304,1380.6710260536756,297.4252221792699,2146.9980778144018,-116.65670889382005,16978.07231164717,2024.5301513487643,1373.7272581586226,288.45531537060447,1865.6511760332917,194.93430306246688,16950.707583176492,1986.074427356516,1376.274917436034,291.81493355276893,2003.6563384226347,232.58109865383256,16898.435310692894,2000.3001375824151,1383.8542771174903,284.6402793051034,2040.4208927663526,209.8294350634684,16738.56627792226,2009.064421555823,1385.5585444362603,281.02578010612467
2148.0,396.0,16532.0,1857.0,1503.0,-224.0,2148.8464147891914,501.6359870522697,16489.03091287688,1853.247684254317,1499.1858246992617,-229.8265112453364,2083.1269129398756,370.1246482843648,16649.824109030837,1855.0413976185143,1496.1032593116186,-228.5024139223542,2136.667425923521,410.09447186369636,16384.17226944578,1859.4723455034334,1512.7609143662892,-229.4428585152669,2087.9506116299713,440.37536311207305,16502.69074189286,1862.679656621405,1514.6336599779156,-247.6786979832054,2120.6100937561528,469.5618713613278,16584.57501437146,1850.4084690811198,1519.30301981717,-242.78136971706883,2265.3021498338007,460.24508234029975,16491.202632088392,1871.6105393522848,1493.6689065560904,-219.1589429728348,2121.005388531047,377.5665283845168,16626.15599479452,1866.7821449593898,1494.4092299800702,-228.1386855833882,2208.459731548681,263.83149717852575,16493.097036063802,1855.4719983205612,1510.0505316343204,-223.86985754651974,2056.473912765554,581.3138290227652,16536.174177165805,1870.4050447071777,1515.0347810344444,-227.74533300477202,2159.4627896923494,492.6518427032078,16567.986274301787,1851.3879774939924,1502.5357014811716,-215.34389748451167,2168.4118889540955,377.9097642778784,16673.104871025345,1867.6486545143089,1494.6823116089395,-219.3128834016265
2356.0,576.0,16844.0,2017.0,1433.0,252.0,2404.428546476672,462.47749723433026,16749.845189535867,2012.4770999140878,1420.9693379048408,271.8585402494744,2416.769638121407,729.1185994654758,16775.416739719753,2009.9431875810442,1412.5263779334998,249.5328893236504,2349.542680509542,653.0757221761796,16891.370668846837,2027.979973624075,1441.0921461709936,265.95070102124697,2308.6790236973125,452.6903873181279,16860.501804449952,2025.028150789296,1417.809036282688,247.92478420470994,2340.107601729708,650.0699827507117,16937.488042478446,1997.8937264373117,1410.3278847404852,257.146693104734,2401.042869798956,715.1170272275665,16748.067960441556,2035.1499652999485,1433.82770136287,254.39084922508826,2482.693535616552,508.90891371575924,16978.31480423063,2011.1363850304738,1445.9965140615027,257.9731553635224,2258.310509733043,664.7912791059206,16854.25480923598,2015.2334572905988,1440.8111883977838,263.86971710465815,2372.7841258061835,617.1922137663109,16867.843650001665,2010.631652959084,1447.5194439467302,251.13461764217246,2382.9686662640406,675.3463862397265,16961.335404390302,2012.6104984588758,1443.2594756194937,253.16080484794983,2154.6046085359767,541.7047985826749,16973.01253760902,2025.1453315401332,1415.0976539980848,250.78003964784185
2652.0,-400.0,16920.0,3764.0,1774.0,739.0,2743.530038577199,-302.5046774539833,16976.87804932799,3753.7732419158347,1770.8337822605874,723.4263330273445,2644.701783991748,-341.0945044453277,16930.414264029496,3777.3937112952954,1773.0466697866177,743.7559989267983,2597.699881526887,-486.7677713457075,16943.947639144706,3754.9727716194757,1772.8822094540515,729.1330653068512,2707.5234943450455,-402.2470944829475,16788.072611613952,3759.8681629443304,1773.4837756142522,733.531302374374,2659.019181733838,-459.1831755887421,17046.550145889832,3759.6785774956047,1775.4444827466716,745.0017818972138,2760.631672760236,-518.7931171878498,17131.795601566017,3756.388738022978,1775.4892608215164,745.1663015629756,2642.4389258934966,-345.44635832966725,16981.660896819867,3766.5104498613305,1784.3176843135768,745.2135321972202,2735.047338466142,-450.4635432136672,16862.050224760973,3755.09263269202,1785.2059481599322,760.6207493695354,2513.657908212917,-342.7814825910029,16876.76955819168,3768.6018977595113,1746.1108496016443,741.564877131599,2547.2613017312306,-279.41193971611193,16977.131480961947,3757.621100053803,1770.350575850118,741.8207272968806,2566.7260792941183,-365.10126263471886,16982.587721898144,3782.998266002678,1772.8583242335826,739.7501790027889
3852.0,-4064.0,17148.0,9461.0,2342.0,-1152.0,3690.6792177421858,-4202.69214542706,17117.223786760904,9455.20045696716,2347.9891534640196,-1146.9344142631408,3719.8931904268843,-4199.388522136671,17088.64141588855,9450.912027573217,2339.9616349769444,-1148.816648494826,4000.9835939935942,-4060.4151435394124,17092.69271455969,9468.235739253301,2334.6584262058777,-1170.880398464643,3909.226441113517,-3973.788637579978,17090.744904055144,9457.229861965177,2338.4277716081338,-1150.3577851707823,4124.686201018328,-4094.070198635708,17290.534519493238,9466.930482220569,2345.4719237935687,-1139.032828359269,4017.3176534513027,-4027.855478626959,17032.051048071324,9452.28600781379,2347.267374576164,-1145.0471656118646,3846.434512581333,-4141.172268755493,17097.05147350735,9467.529880115015,2352.0934965143097,-1140.3515642566942,3808.358942348524,-4058.047394801915,17249.758801091706,9439.65838288087,2326.169957847133,-1138.3980430361748,3841.135569084034,-4026.423835986463,17078.26846469329,9459.953636313629,2346.4826415732496,-1153.8082047185396,3870.051685299065,-4046.065991177533,16977.01787337657,9460.752849789844,2336.5475447725858,-1156.5341550340854,3859.735868266308,-4153.322208236248,17071.753414247505,9464.47645729718,2348.3125298686323,-1136.7960907027416
4100.0,268.0,16452.0,6600.0,1901.0,-3180.0,4077.6311224964375,434.73131792326893,16475.742689578565,6610.057830331836,1908.927778371954,-3180.616129065278,4064.550455409872,483.26518278765036,16581.405784233997,6589.104142090907,1894.6933865430778,-3174.9326642492556,3994.340310090401,244.14570665778365,16433.233319144318,6593.8176689703405,1890.305123166721,-3193.5906622807815,4069.891969639684,253.4262434565228,16386.688161853483,6605.845968647766,1912.5054878567607,-3184.1457265957783,4134.925099447361,168.5043988168697,16546.774547219135,6604.102362250131,1916.1672917772075,-3171.7297591941065,4005.7782781999053,341.0639573253469,16316.974652586485,6606.53267362084,1901.9398572513803,-3170.660291887562,4201.480732119189,137.8299770679338,16599.057275313484,6599.067060011088,1911.9502245072022,-3171.3064380912397,4176.63518967236,486.37214824952275,16584.268956745873,6607.59676179359,1907.242077178436,-3182.9003423343943,4117.923889023594,410.39923495168694,16499.165390844475,6611.652793058303,1903.1138267437261,-3174.5692073122327,4092.7146152364876,239.76662773922448,16453.357605886653,6593.412938043133,1904.089885273752,-3175.8595983997257,4048.865277267496,285.7319542711144,16419.694295231533,6601.632727170275,1898.2008366044556,-3171.7701464171128
8936.0,6936.0,16008.0,-1128.0,592.0,4191.0,8994.46986892898,6818.849635365034,16082.282340185468,-1127.3200345540995,584.6045202302054,4198.187714104316,8812.881349904095,7108.731999968709,16130.546981196687,-1130.4372420773252,593.8457567066735,4198.814194132804,8799.531624472607,6883.27558910296,16080.50573688564,-1120.0433564225496,577.4109888186607,4175.559237563971,9094.431064354792,6786.888109613274,16069.599000137061,-1122.8903442761402,613.5335765416753,4191.103270647989,8942.21660671616,7051.528035303931,15954.05467602438,-1145.4891845292761,604.1668166523535,4181.435214419018,9120.038879304753,6906.198313139362,15994.550070597208,-1142.4284863210505,601.2048071014356,4173.359094099677,8925.75167552648,7029.343243261042,15987.584053355775,-1137.4281841300676,566.5830155954209,4209.006147844676,8815.289100317166,6974.126229813313,15893.526865321892,-1142.352798482242,589.8834900056695,4194.814440217528,8984.312139887059,6961.827231994215,16097.894299769447,-1122.8812015804838,582.7139545372412,4195.791016150856,9111.160152012026,6839.384512769201,16077.619991810418,-1139.3830863936175,599.0377750443979,4194.948134876327,8947.07868894301,6979.291049007447,15883.114724461175,-1118.6526045892451,579.093702528903,4183.554194494314
5260.0,2884.0,14768.0,1551.0,1665.0,6994.0,5173.923991501242,2852.4573542626454,14838.221325974364,1560.1583228501145,1681.36788595964,6996.042426630665,5433.457390707716,2805.319326084033,14529.226976342785,1566.125532152975,1656.156995037062,7003.296006381457,5410.258481639302,2827.8037009866393,14837.508256072977,1552.4726601275545,1667.3464226073083,6975.4031024706555,5298.900071171029,2870.709575338342,14851.775555417222,1555.0249291817008,1670.3833854801526,6990.755916508757,5187.58757090773,3032.1546953580582,14560.897300442763,1550.179465732729,1673.1018860658658,6984.604645091863,5200.338853302177,2777.2436255076677,14734.521552992604,1530.5408207375199,1657.1119346554453,6991.7269485616,5452.20289509038,2767.9786429366577,14643.950725846871,1537.1719299809645,1667.335343351826,6994.625157038447,5043.078030898821,2690.6396124426324,14749.34841624094,1547.543631626339,1675.3788126403538,7006.9658676705985,5251.724445383335,2807.021563766898,14857.409283689525,1571.800895793493,1670.598448169927,6991.777737146568,5393.253408121041,2846.192733377229,14611.921338006856,1555.5583487774402,1673.4642189740277,6996.942168675156,5330.255344877342,2921.589534437993,14769.582916989046,1534.2704338956373,1643.1619181026676,7008.913463292519
-3576.0,144.0,32767.0,-1263.0,-723.0,1659.0,-3522.714278555611,108.91582733740063,32754.187659344247,-1267.5541191963953,-722.0076262789252,1646.9285367504267,-3608.968148883282,235.07265576694869,32883.956462007256,-1267.7935339552387,-716.438382667168,1658.1231021618726,-3626.9645017209555,321.25519466971593,32808.588730894495,-1269.9982711687646,-721.282862851409,1649.2412477607327,-3624.5579344062407,-15.947239074989994,32777.95517883995,-1259.490727973817,-729.8600825034097,1677.4001837010437,-3516.9116812989173,165.0925964257982,32805.82218640184,-1258.2337923985838,-726.0460340882399,1668.3160155278338,-3665.758901732769,210.06376444229983,32760.944775637083,-1264.7247980937937,-741.7067853674123,1651.98438661236,-3673.261132120969,170.9215417846836,32752.106303780096,-1259.1806370767843,-714.2381216594267,1647.2878697734038,-3681.601108951298,234.52155695348677,32870.67662998814,-1269.9203465437934,-710.5782921106884,1675.7234832510812,-3492.9275466098165,154.66859623236905,32730.59277031131,-1261.6521346600127,-716.8517687269712,1650.4240555029908,-3455.244122294761,150.18274303123593,32692.216881233828,-1249.5731002040748,-722.7853872964043,1660.1353555514997,-3541.4373467100672,144.90939341148783,32664.001388609966,-1257.3481394486284,-726.8452338256774,1664.7060474149423
1120.0,236.0,19044.0,-550.0,1106.0,-1224.0,1113.754135466464,179.85686628063044,19109.776649601055,-536.9701057860901,1099.5925792689404,-1212.4627695540335,876.6631175079325,175.54492394210996,19156.93498241923,-541.3963383766525,1109.3255043183797,-1227.3570270510406,1110.3302986059741,119.00019657583375,18906.934336226004,-551.8080287221237,1106.4583578754214,-1237.2795710617117,1172.3759355853733,199.15661326964806,18919.86315865949,-547.072914907399,1099.6507995138031,-1226.5132006025035,1251.9185472505387,288.89156926242083,19115.183573815433,-536.7224012240872,1081.3932518875863,-1204.6177974339753,1119.3687656685815,317.8263163570969,19171.817919916335,-536.8908368393284,1110.9273069583624,-1218.1123701963022,994.2688214185508,367.7592433265537,18895.960023855892,-548.9020392809671,1096.5113539049514,-1222.2892686210605,1092.74047395109,374.09481555940135,19062.859428615626,-561.485622086964,1119.1387834782374,-1211.1613265685796,1089.0849524273349,195.26975946443707,19181.361706316187,-555.2866546083596,1102.9693800884197,-1242.2520043128916,992.830279415708,426.1463558382552,19048.844461183464,-561.3285089896882,1094.8890726882014,-1208.2880484236944,1145.6168039959248,263.0334174247169,19060.820427483053,-547.5556439631416,1088.9714458854803,-1234.3156232886993
-6152.0,240.0,16000.0,-2381.0,1310.0,2346.0,-6217.9192869223525,198.43584328050522,16081.961372774509,-2389.78013843922,1307.2042797952518,2358.0898035976347,-5962.76888743823,147.21220625696589,15824.230399006176,-2384.166264930389,1310.8225487200446,2354.7269955032634,-6216.6198259996545,324.08780247738673,15960.089089910189,-2390.2699648903235,1317.930843784498,2345.2137761531244,-6309.288749304391,202.71773614002768,16130.394603202421,-2388.117031852974,1311.6701145442062,2358.224499715097,-6164.245140571842,388.17094631353626,16135.640889870767,-2372.7454159963227,1303.4894318494946,2352.957055316366,-6309.987367993653,278.6010117656115,15908.059038437013,-2390.308235500113,1298.1380801160099,2351.2093003646346,-6224.587586741561,162.03333339889656,15880.551539296326,-2391.7267008160898,1302.7858849056818,2356.187370448914,-6224.091465754424,250.47884998962112,16018.73434425174,-2382.223942074076,1302.811434143699,2354.191588467922,-6242.382578777626,200.04864111112423,16014.356405425193,-2383.1182824805865,1290.9149896022338,2320.2816799910283,-6120.129846269486,173.24740201305787,16075.142203562844,-2371.367999068998,1303.4487555784171,2340.923061774863,-6194.020834830343,97.09043206219172,15970.771721159688,-2391.068781107296,1279.2224588749646,2357.6781936909656
-4720.0,1312.0,16548.0,2982.0,1554.0,3476.0,-4787.01418795818,1276.5559142363766,16577.58432709692,2982.1222735919605,1564.006392496043,3479.4634943440346,-4726.384740122933,1390.6254134853016,16538.585327351215,2996.031527357663,1548.1196363464337,3481.0628816427866,-4880.588141430627,1366.4497673244841,16402.378699779532,2966.3663609655737,1556.3171570767056,3471.7488258711815,-4522.873467241418,1274.6462668890829,16682.90756168635,2972.53382365441,1552.5026091599866,3468.4878488290656,-4623.197071182456,1409.3673067066795,16452.475353935894,2980.030993410484,1560.4973364037282,3496.8188595309307,-4746.8874981889385,1617.661472778711,16764.680949278078,2984.815276740865,1557.7245732441015,3475.9359771400905,-4733.257602032824,1132.0294363069288,16500.47097728915,2997.0250306817243,1530.040169339112,3481.3885985522775,-4553.21078626912,1217.8916568004406,16563.02912036002,2991.887703943876,1549.3587199149872,3486.5237021026655,-4803.135615825006,1287.1434971924832,16386.29546201037,2989.115980506691,1562.2955495431918,3478.049664667117,-4631.027518575401,1277.9768585774193,16399.935490066495,2983.869048908838,1552.0009566975384,3460.4305255748027,-4697.2689853866805,1263.0107507792295,16396.686416966157,2980.548774863105,1541.198370304615,3487.561404170063
1236.0,456.0,16920.0,1156.0,1268.0,1286.0,1042.7403785510667,403.57385646298474,16924.670529598436,1156.072187154997,1265.7192542387852,1295.4214124110392,1337.3908575149642,519.9122065158836,17018.80882636477,1163.8383442494176,1274.2569503269945,1290.1982578593213,1181.735760587963,584.5361605148914,17009.825308603416,1158.0130311146104,1254.0947113358054,1290.739761445843,1278.3841591862142,448.11780392904933,16993.041431184116,1159.506653387046,1270.2921264481815,1281.065762607927,1298.5435729334993,442.1253934114459,16825.21611386167,1155.8799701542778,1267.3782397886912,1285.6070832460289,1276.444268763412,398.9255511737256,16831.343232587045,1154.0778916239499,1255.3264875692748,1275.4786646814357,1110.8364968359851,449.49510854899046,16839.515960487446,1166.0481481390914,1265.7899068097156,1290.5636688202308,1228.57025773388,260.77897515082293,16935.871921625683,1160.7317570463754,1279.065365099682,1280.3834100984468,1307.5383994673675,311.4387931401871,16847.72817834181,1142.9814457558496,1273.292790476055,1293.1827337523614,944.4340903516807,299.79326558567743,16946.653876386925,1163.766347103406,1280.0262644796449,1300.1891455554307,1315.929035773365,531.9576618348186,16850.65133998189,1156.4920705963827,1270.5492859300962,1290.160938443872
1412.0,-184.0,16004.0,534.0,1119.0,-210.0,1609.3856440031095,-214.4548189922854,16021.701410032681,536.0494296156684,1115.7729519830395,-200.583133730358,1406.552144555199,-199.3837803123737,16073.308956864415,520.2859441297212,1117.7732417412903,-217.568560752416,1539.0437955755551,-117.16113358336551,15935.678856990075,510.5000635592395,1125.6443455464264,-209.5007949698995,1317.513289578212,-189.17267663662838,16069.197062711677,537.1790521603881,1115.608120852152,-196.73144239653348,1254.4191901905897,-18.252856931818542,16004.244138566375,540.7983429338008,1110.6618784168206,-208.97261353297856,1422.1485433744572,-305.568245539071,16027.017549422644,537.4699055715755,1137.4481986756368,-208.75052791377627,1487.8712861009178,-162.12653676111574,15894.587618463922,542.2002511332039,1120.5976017567095,-206.58272459203678,1310.2521251701298,-145.69370936743513,15924.712824551429,528.8558679954606,1120.8587783690955,-205.47644915165057,1371.2386812089535,-222.23400710296568,15853.29888379878,527.2951822772105,1127.0544515115305,-211.28893924582033,1560.1591832137383,-195.50723868608173,16029.468714921684,551.5179736919971,1130.22331660987,-221.04564925422315,1405.214158219904,-246.16687732244787,16080.95104902072,530.1798217165244,1117.5454928879667,-236.17241550463248
1240.0,3988.0,16492.0,1476.0,1541.0,443.0,1268.2700321216196,4109.19387146509,16571.477139140483,1467.1848041710791,1546.1205101293335,440.821503248976,1335.1296840132138,3880.985960003078,16648.355514257397,1467.4871798285706,1542.8412188407356,430.20956197680493,1218.1743570163098,4085.0019858207716,16379.03280405408,1482.2803090362636,1524.7646466394349,425.17031535046675,1038.2526487918024,3936.1156754743347,16380.343992103295,1466.5077324020997,1537.3989753190501,425.1243873065032,1101.1847936601666,3914.803454720628,16464.278841127412,1478.745277457558,1540.5058079111757,442.59723201501066,1254.8670622396294,3996.11221930681,16722.292127341883,1476.2181240221719,1534.9232145643068,444.2510342725259,1256.4169661523943,4026.7327662866,16304.116292797371,1475.7663833890565,1548.6471561456456,435.1031388381908,1235.6147315670382,3935.7305413040244,16327.98273144983,1477.0533125590025,1547.7978210651852,434.4237878101424,1248.7009555046136,3928.072692593761,16232.414154232705,1446.4734895961963,1536.4592233384317,440.17304084665744,1463.9987002273172,4114.257039489083,16408.69415960671,1500.1585880587177,1545.1178481180054,457.80004926450005,1142.1369233414732,3925.490357524825,16487.92872552527,1476.2782114863069,1544.6891568573126,427.05103634023436
664.0,1160.0,16484.0,2421.0,1993.0,-253.0,587.5453114404957,1103.633207190187,16489.88921026549,2430.733490717621,1995.3170350373175,-251.94578020009405,905.5467461303058,863.9792759961388,16448.71656510975,2430.487400727466,2012.4299722042508,-269.03246294083687,635.9525491362889,1308.1504995497644,16463.081068362335,2416.346765549335,1994.9742909243837,-250.09327641320357,800.8043661343784,1181.919344715781,16488.93889482309,2429.113130758926,1977.0109064370254,-261.6632082460744,680.3492174901816,1019.9863309541677,16695.81480944442,2418.4885209632357,1986.019121359795,-250.68209988165165,619.1367745678448,1163.56089377668,16673.121224670107,2415.3190723016364,1982.577849845617,-250.16496755521877,712.4547865701833,1209.5863409880194,16441.82871692625,2418.1484644121415,1995.4570193885768,-239.61251850230664,726.0850379360418,1238.8492665007668,16479.093591734934,2420.6598963312545,1993.9593061433377,-263.1706391571985,497.7247580065183,1189.0360638263544,16580.370148095455,2404.341028738211,1998.4203597044057,-255.9602920551559,679.3134383898679,1044.9130148680465,16476.957835816185,2420.5286234648956,1998.852102061841,-256.2036041191368,613.670785431094,1075.1140634789797,16468.500608645372,2413.4048947014217,1991.45459318756,-244.91383562723144
1408.0,816.0,16856.0,1133.0,511.0,-440.0,1233.704366276203,708.2046937015276,16914.521961040988,1139.3055608039213,524.057794050359,-450.8670148945417,1485.0300422154671,857.4740065042132,16929.4231609702,1121.58082484962,529.1512178124076,-445.5613128565798,1454.423084144857,964.3235563148878,16986.04863134644,1146.7373993018814,522.9612513175075,-431.88588188299224,1508.5784604778917,736.7417962604799,16875.671973769626,1134.0040225238936,519.1499836619658,-440.5852837417838,1513.7665977252504,604.3964865084444,16741.380111962815,1157.4151910642054,508.61043860851566,-436.559790385178,1341.6512541400052,892.3593978740076,16873.849966025566,1149.715742383248,510.39157960240726,-448.0761001352195,1409.404199026481,730.1139537142577,16910.192320975293,1122.243287591707,508.7257831963761,-428.12249795860174,1438.763813778894,904.681989374131,16948.513717542795,1143.207329752024,495.8015426602052,-440.2792181019945,1233.1856330043752,886.3334723344329,17044.73473649086,1137.2972499065252,515.8482130564239,-451.2566575043901,1489.3972450287765,720.4829524191707,16846.718877491545,1130.0541038098954,517.4232303696643,-440.31962720878647,1383.0020185164624,746.8143023554112,16678.739458047854,1129.797652344603,504.83470343403667,-435.07734706696573
1680.0,532.0,11892.0,-254.0,1967.0,-1800.0,1617.4809336007572,499.7466153125991,11808.15942863889,-250.72515217768367,1976.0937979966038,-1789.9935954772866,1786.5461988676266,545.3713803271236,11977.104549730931,-233.56261854651862,1979.9350613464924,-1803.901763111884,1816.0631658365144,597.4165727618191,11863.975636519726,-251.80825382920148,1951.5529845841488,-1788.4589359695558,1817.1026255485826,632.4526758205411,11995.174129746958,-266.42605711401615,1969.2421143227289,-1793.0353426175423,1752.3561898990074,643.4839682970285,11994.435615440754,-245.30340130975563,1974.8696576809307,-1797.345746197134,1648.9318899292202,599.420939179811,11786.85274117544,-250.22106387937433,1974.880764070681,-1787.5223792606187,1641.2145531082588,796.1346711524227,11771.158864309444,-261.4573407246389,1980.9550107059474,-1778.404574020305,1709.4914757687393,561.2375063726763,11730.479507194415,-247.2791266230915,1968.9219877358678,-1791.0336240477452,1653.334943910904,325.1126316206295,11930.331137093483,-250.1990305834607,1970.38303443053,-1800.7489387189844,1637.156977718852,569.625666591564,11862.13658298101,-258.90243096128563,1971.6699929605963,-1800.8765682377045,1735.0236117427107,496.4500276566674,11911.920638776617,-265.1735614104358,1967.0707479870214,-1798.2297109710935
1916.0,-1504.0,17264.0,3883.0,3958.0,-3497.0,1978.9250194156828,-1539.2015669331904,17201.865698381815,3882.9671291306627,3952.0087788407527,-3516.2563522928544,1961.3618882040319,-1416.874540565195,17119.379376992933,3889.524357716772,3966.9151352116614,-3497.9228255925714,2015.5633589967947,-1499.1369263769477,17193.638225165167,3873.860337702022,3956.301679198629,-3487.6043911046236,1963.6549715788508,-1491.5854590403594,17172.07271595469,3883.8773202139164,3965.3266672394548,-3488.161371027739,1773.1553043428426,-1491.2416555058646,17286.48605939871,3886.728064126831,3974.94863233325,-3505.4805401789004,1996.6146757706892,-1564.5554631656341,17178.91037583469,3878.4293727706745,3967.010745879073,-3497.4813649903635,1783.8716045320737,-1562.5303512967077,17316.135969581475,3885.3904291277927,3945.7793140158064,-3518.457058654278,1934.8244963656869,-1518.5394424487351,17299.45070125508,3880.3569662274986,3961.8736143535657,-3506.276536243305,1740.562483978392,-1454.1186902052757,17319.05815982318,3878.246429704001,3953.9718341402368,-3505.7249189168165,2082.270003354088,-1541.5236903449004,17372.86687023429,3871.6699796966886,3972.0258991622,-3500.0595533935216,1825.2416138526523,-1579.5509288023175,17215.135730024715,3885.312354415188,3967.182901883934,-3481.0895169769033
16.0,1096.0,17980.0,2942.0,3462.0,-3062.0,147.32312755532024,1042.8192720132179,18090.364154540395,2948.850861822212,3475.0092268839376,-3052.7493233364216,146.46677662710485,1069.3861787439562,17995.141258084273,2927.1887128691556,3456.698867876769,-3052.6429216963033,-173.02530458321823,918.6184444862382,17936.829571112743,2943.261181248189,3454.1842656485596,-3064.167570877519,81.7848463152099,1076.8513875591593,18229.358929711027,2937.856036591522,3487.0432261667656,-3065.6494721665667,-88.43814722201061,1113.31092392147,18091.288163294335,2915.7107064758175,3451.5797702430405,-3069.1840579852046,-94.97964088978426,1100.2085470181453,18116.910123750786,2921.8852267781544,3455.885605928108,-3053.220248698623,-22.898851893185757,1169.1527545020745,18085.91879317602,2926.1971371256245,3453.2858748349963,-3073.713561436853,48.22672820100723,1208.6443790889546,18040.25491822431,2951.356133973767,3452.8381091237825,-3083.0689519988728,6.187073576064252,1293.14668182517,17988.15451157097,2954.4727278049577,3470.3828564650944,-3053.8568386958923,-114.99422250598266,1012.7467601807291,17985.97930169647,2942.903745138514,3458.2254511899,-3068.9682536913883,168.64012818501803,1262.8268400366885,17831.138309648613,2931.3512371703428,3464.4122477203928,-3061.642459618863
-2072.0,-1988.0,15508.0,11839.0,5059.0,-4588.0,-1981.5726111325034,-2011.7509288413432,15536.79722379621,11843.329470132345,5056.361788170371,-4605.347906587658,-2202.321044593248,-1776.0732473586334,15628.143583268575,11841.773067759166,5057.635125936788,-4593.285564950625,-2050.6881112977467,-2090.651812444606,15438.89995148072,11832.074113325772,5067.910562023652,-4596.9687170189645,-1944.0818021130099,-1937.665010260568,15471.887563706387,11854.916392511532,5048.803103515804,-4579.0014475952485,-2144.83811995233,-2071.652281619484,15688.495851368789,11834.71725155128,5061.74292765243,-4596.949764119062,-2192.521155962757,-2069.451336551153,15593.668109061,11839.730386541307,5067.77333514257,-4597.8510992389,-2180.1784220469303,-1893.082336631435,15362.04472484796,11838.180611425772,5069.724340782024,-4599.676960357968,-2189.5305084847914,-1842.833946008074,15527.619431038753,11839.290454381025,5054.378822426729,-4591.390522184758,-2186.8161831187317,-1971.199321890756,15583.977528468893,11842.174288616628,5041.865365023582,-4580.292167682508,-2314.8661533925283,-1944.5515037205473,15454.355462604139,11828.273768228566,5061.9216237474575,-4589.748366824813,-2127.1158659475095,-1948.597535388412,15350.093531611667,11837.505262975254,5041.805950323362,-4578.769757250215
2120.0,752.0,16372.0,2996.0,1157.0,-3217.0,2188.1961473512238,643.0274054683794,16552.748558639712,3008.681827603472,1163.3748407249766,-3219.269790569764,2211.4774313202533,572.8684507339241,16516.345789700445,2992.0241245411794,1163.7694734185397,-3210.694898698114,2023.1058588255662,811.6960164793661,16409.568142492746,3005.978793373905,1153.3219158869094,-3219.528707783648,2020.5335456672733,614.0796053898596,16179.831759248125,2997.4412947586516,1159.9421826626083,-3218.5299171265838,1963.3636934084082,746.723726055226,16341.154741577337,3003.9845143497923,1161.0459095300307,-3207.2189077772778,2121.4660334149753,583.4812591758532,16301.781517574203,2995.953064419579,1154.5765836351982,-3219.1487968527267,2094.339926902556,673.6762953202501,16239.772435752435,2982.881113999644,1166.229911015898,-3229.301829939678,1913.8124786964452,473.21625797739574,16438.35287325667,3010.787581277105,1172.5031924285265,-3206.5657687298844,2179.6928626658214,760.1393460889973,16287.195475263356,2984.5023637934532,1159.1130826941833,-3231.2876864040427,2184.3230715621485,704.3307358326309,16368.485261855125,2991.532163488863,1147.6762711895128,-3218.9162621473297,2162.0495480348236,629.4924023701525,16456.292698502028,2982.415194549735,1165.1453721208125,-3221.4669681582563
6820.0,5676.0,17248.0,1282.0,2431.0,-2939.0,6816.965045175105,5799.114267743028,17116.675148093695,1277.5326906739558,2437.844276456044,-2928.2657580379737,6675.080177057048,5772.914904397161,17327.71636232904,1278.9528103087778,2423.0497480004624,-2935.1285888321772,6838.476952644566,5791.756950424291,17196.398989630034,1276.735207983193,2434.5413544165217,-2933.3997795546825,6732.827310540969,5636.328359868133,17182.552695919614,1271.1835658631958,2437.9644885223374,-2936.87599397038,6723.732394476709,5676.393955820088,17287.98636912096,1277.5725577187716,2423.295448872517,-2940.418483370596,6866.218505462809,5843.90486764527,17457.946035785983,1285.029066049219,2432.538846591754,-2965.9604914950614,6915.335749401036,5714.661249208253,17216.832492074354,1272.39183147691,2431.7068357576222,-2955.71443619626,6853.148793822537,5793.002051216792,17497.51086764287,1270.0911503592056,2432.6120638154503,-2927.06622829349,6687.039616650413,5735.050726532869,17053.592432678088,1275.015921751318,2441.23041625926,-2946.0632366178656,6863.238574029665,5811.828955150575,17308.950504499095,1268.2201656753593,2462.5621942805187,-2936.6459203000795,6742.791157849593,5684.0051399187405,17129.301947984844,1276.2003042256406,2434.132791859067,-2934.7616313056747
2264.0,124.0,16364.0,2726.0,1412.0,-860.0,2355.7493582042944,-18.609331273386715,16347.980387522193,2738.1074793795187,1412.2218696637933,-876.8063592365107,2288.9471762144235,-27.137065582024718,16332.77358972061,2726.8252692655656,1388.6967686730918,-849.9427639381631,2201.6487330607315,105.99619707846928,16410.796841440864,2732.651568718147,1413.2628914802112,-858.1372026909396,2253.6037649536784,179.1389552118451,16343.371977271814,2734.4695733550884,1410.2667191931343,-847.6251116302714,2372.5316810514546,110.91644732919778,16380.579754386607,2717.7934429230504,1402.4441365020336,-881.6826904255228,2198.213021908854,74.8266392433589,16346.641362856888,2729.5166832739524,1403.6873692560112,-864.2285743071315,2272.688323187811,127.75289608409442,16348.387159720574,2731.1350588595906,1410.4775829273426,-877.4152717321197,2291.266067978919,226.45043460385682,16197.910776592324,2722.4120141896224,1416.3305162672698,-848.015317482856,2433.698108137788,348.68909474478704,16282.601337075948,2729.2915737486524,1408.0699739591016,-871.6286084838763,2243.3330220673033,-27.9702910656394,16487.82416576155,2720.004692198328,1419.4796943568742,-847.9358540809318,2221.740596797684,81.52197416445901,16382.669350273654,2721.009957898,1407.2305589710204,-863.8876608717029
3588.0,-188.0,16632.0,2032.0,1294.0,-47.0,3651.6728640524398,-165.421384813735,16481.240746641117,2006.8728999789873,1288.778800248239,-56.36003365432564,3579.3619211277446,-403.5003130366248,16458.3272220985,2022.3913502917142,1295.9497092106285,-39.585719182171616,3697.4448031948446,-137.90997785832522,16568.394599033807,2010.6608032094884,1292.513884023965,-41.659026722231346,3730.5495213144713,-360.3865740695933,16748.327951541727,2056.1618567001397,1291.618982889558,-39.435993412947795,3647.1820924174335,-122.32804476924373,16763.581286556673,2036.4089808007634,1278.996494632047,-51.46764381928971,3694.8845174107537,-210.23578660974536,16560.392695677052,2042.2484973267433,1294.9458576817458,-58.61124414201407,3621.1690969613724,-103.6559434812324,16683.25601492932,2026.2457120243755,1283.3275760674403,-36.91145374274757,3599.79589247303,-132.9348774601558,16390.31297261001,2030.7815039699622,1290.1979287865668,-49.87708905406154,3499.956294345825,-113.20875097142371,16567.71370562951,2047.472791625056,1301.627848191282,-63.558628169392705,3695.9946290516555,-260.52625613245846,16496.738937934173,2020.8992806684837,1291.3479480236915,-60.6965401345662,3614.2869261841997,-115.54567527571416,16550.824230155024,2051.1282473189403,1282.0689838487044,-32.009364940190636
2176.0,464.0,16888.0,5515.0,2023.0,331.0,2389.7424275493613,596.2153997739788,16999.56316260894,5498.8899031093615,2013.8235216959515,331.89719893383653,2004.3965120475018,691.1893269531387,16919.27935877715,5524.904532445449,2029.917194330575,329.44314690421487,2200.690782665848,279.2308429562819,16969.540560498288,5507.320191686291,2017.430957616807,332.09427598623876,2155.807340551907,543.920977659324,16774.33078558061,5532.3642193706555,2007.9035180486915,338.36918434968777,2248.9187064271805,425.7287826932518,16961.2493900468,5503.2682845006275,2028.0633734255025,345.7577455741269,2159.7279758831996,438.7328751803672,17073.568629308647,5519.6539015475255,2027.6929851432728,350.8558916931992,2129.67896317149,421.61009369480803,16851.569733058353,5505.175161215646,2003.4209232014612,330.5963961579934,2246.4250029593254,430.90190112100515,16651.851912529863,5515.551423860641,2018.3880229199551,328.94091519803834,2101.7031712924913,426.5625352330751,16990.636608199646,5513.765084402393,2028.5809505071427,342.50105801702887,2229.7519400232477,393.9984536810132,16857.157664301576,5509.981483037842,2010.1191316770985,333.9983301791894,2217.8462321277334,471.9513711148608,16816.57018197657,5514.271944200263,2044.8117684838332,324.3557888968137
4060.0,-1136.0,17112.0,12782.0,3186.0,-627.0,3982.9891322564545,-1098.3787061663743,17052.965294676167,12779.62894452647,3190.3896704123913,-642.4740836968472,4030.9187878824805,-1239.4716851285154,17157.80323584938,12792.197562437093,3176.694382900107,-653.1689385124727,3916.594724235373,-1131.9731058217828,17123.170003545387,12774.863003124703,3184.038155196642,-627.6935542125963,4098.8055568088785,-1143.0938559340495,16996.963678785392,12782.934478029809,3185.129131079209,-632.330964873368,4115.886178521632,-1059.3348676661203,16904.79822613714,12782.69972128729,3203.2237794090825,-639.2782162547179,4008.851388129085,-1046.260004699882,17169.884506860326,12781.115110300068,3188.0342181474407,-638.9672003512861,3897.80272735244,-1194.8802051784303,17180.35913523567,12769.187379719328,3209.4910742450984,-616.1947331429685,4100.159641876647,-1260.9821851240847,16986.841792864634,12780.491670496782,3166.3334651445316,-647.035046845975,4127.844282200107,-1018.0847377635283,17173.920515761623,12793.135644007883,3184.1068503105307,-641.0004158693614,3849.8693311179627,-1202.2118252399034,16905.644142669287,12794.419841254297,3192.9504962008655,-614.5284418618173,4066.4049400167805,-1150.216081337752,17054.507327227977,12792.969876095365,3188.311862389701,-612.282977385699
7264.0,-644.0,13884.0,-793.0,297.0,-335.0,7295.599592484204,-652.8439913697634,13886.211888484662,-793.3017263596281,302.67502149627404,-344.7727523958662,7258.041552341137,-561.9534528697001,13817.755128249277,-789.1053251925381,301.77313852782237,-331.5171363258683,7550.423040337411,-699.6222501136316,14013.96469141006,-776.1072154654169,285.1537590782791,-348.9375104385708,7042.597563854297,-560.7669535699621,13821.801794429753,-789.234235457436,297.57245630577745,-335.5819769187384,7187.654902636418,-599.9956648836041,13874.726920481477,-787.7932682658501,291.6976236262765,-316.90982462003893,7163.785667078075,-529.3894766923581,13813.713450964084,-805.7414750380308,298.2739286251713,-333.3277441994981,7282.68932036489,-567.7673998217251,13805.286025380261,-804.3766963811665,305.4719641876264,-337.44603145252916,7221.688010653889,-709.599758673596,14051.188420070252,-786.4188236662712,298.71292401337934,-331.2643665604234,7487.617455291999,-536.4831491717121,13992.24730254992,-775.8610097052303,300.80938718436784,-324.8571799219136,7382.000561056065,-567.3529038193594,13826.313244106866,-797.6336347112513,298.4635399343492,-339.4596301172708,7405.440453685217,-663.0191488738958,13945.555874625508,-783.0676481261252,297.5348803578679,-336.42153354023264
3216.0,-656.0,11904.0,2966.0,2145.0,5447.0,3240.5902689030186,-708.275537152382,12042.920677909395,2964.418428908127,2157.368400167788,5439.627497424078,3075.306585774113,-674.6241760033441,11978.835625334776,2969.7764712555927,2132.0678187047624,5445.742651160861,3224.8592179987772,-673.5200693791502,11779.898950749255,2967.1163823179218,2131.631599680453,5451.886814946488,3256.006166981211,-697.8074536392173,11936.474748294308,2969.855318626841,2151.415537677613,5454.665571625459,3068.4618249916375,-495.5625148559332,11820.963916565148,2955.7067675482167,2153.640550005757,5443.080853742366,3190.975630051949,-720.1052336141769,11942.164337169886,2969.5781306506656,2148.0936258267407,5447.174004670748,3229.787476361748,-680.9662276065014,11976.502349686261,2971.5421388584828,2135.591880965879,5439.339273958146,3123.2589656916102,-622.289133060525,11800.547746780265,2963.434949137398,2150.3426968710223,5452.887860921913,2969.585036780599,-701.8670458493347,11781.887385669179,2956.1137586734476,2159.1260102474325,5443.973468293106,3406.306707625154,-590.5428617222592,11946.674295173723,2947.6028518998737,2146.9286985595677,5456.002953452105,3311.3585306342466,-661.3380211400561,11991.49014047398,2947.7225579145324,2154.103411163369,5439.136281852988
5064.0,-1392.0,5136.0,-1274.0,319.0,4667.0,5138.017094160552,-1271.482802057511,5220.377171557255,-1285.2679162113538,314.94920612369225,4665.290186950083,5124.407246320993,-1425.6708981774916,5171.294358315854,-1279.0997453992616,332.8139344700739,4674.874360776496,4985.373098034059,-1465.1556568722112,4980.575709056949,-1261.2724995019773,311.75684334378553,4667.500429735345,5113.65726555891,-1390.0307691986084,5252.220970402594,-1281.813445573814,316.86890252193194,4668.577996490259,5090.935971167979,-1379.7959984136712,5154.05052652017,-1248.7023793064657,327.0534541648497,4668.984710492375,5036.775977603501,-1439.1218614095174,4984.678381302234,-1263.843989907094,329.3450769174283,4667.379950422496,5052.9437686443625,-1429.4857252652623,5027.9718565384965,-1270.6086487891625,316.67839414489634,4653.324194085318,4954.217656663307,-1447.43119065733,5150.9013725525765,-1278.4674844684869,324.56259609363684,4644.874804781826,5139.478869057589,-1447.725866492863,5183.434521174179,-1273.918067074231,312.029709615418,4682.76007319356,5039.270839942131,-1401.058122258528,5204.002906617753,-1274.6470941534637,317.23157809327455,4689.400948090087,5116.251334435419,-1422.7985632720645,5215.426056689982,-1272.4479650567557,311.3002908267357,4674.9172126263575
-304.0,4060.0,13676.0,-2416.0,1634.0,2310.0,-312.24549625463067,3991.0399637552596,13716.904748526644,-2425.4395094199913,1628.6484635934514,2320.7911054764068,-325.16199292522583,4074.4996993742943,13568.119750311997,-2412.531905991572,1649.3849553386378,2310.614075087711,-237.13943594939613,4180.897287034639,13738.733857763607,-2425.812613076892,1627.329299923497,2304.286724651298,-233.77953317417467,4307.07724038038,13662.933697217384,-2416.287423317306,1654.5773328185905,2304.3594984383917,-383.6522252038635,4191.555642197748,13656.286543866414,-2420.547764011816,1633.464527129917,2290.4404900004793,-298.3981192693047,4139.4486264651105,13623.994688540653,-2428.993379872891,1632.6516664723442,2292.201396115104,-213.9615407052591,4108.395534658028,13662.35361303954,-2413.3647073927223,1628.735879868177,2311.077930814283,-292.4017898293397,4229.487028530287,13483.19752406056,-2407.08230486979,1649.6021629499126,2311.593251939682,-283.19985487593226,4074.9605454416683,13806.035728457775,-2409.03032412961,1606.7608734774312,2320.009664125414,-563.1549880367113,4196.3790731039735,13644.270531879372,-2419.1128634384263,1649.8359671907983,2318.08073071639,-187.63134041963616,4100.205644793377,13666.29165325249,-2412.754766408832,1628.6205290972289,2294.0083234752224
-7056.0,1112.0,24164.0,-2865.0,-953.0,2006.0,-7065.192328928015,1094.1706876306507,24237.274601204128,-2872.1061388867965,-948.4272442912271,2004.575861590964,-6999.091268370839,1031.6964724741895,24246.126527603963,-2858.7978884054696,-958.9626324922444,2001.684452493496,-6880.210124105428,1061.6013842296802,24246.993405306355,-2859.9487338556705,-958.4448921564049,2006.078170037286,-6901.843023891931,1146.2076664288593,24250.805101037397,-2889.965108954888,-948.604771207559,1997.6360690396061,-7052.7869580023735,1145.6483181550643,24299.927379455454,-2864.4918846554406,-943.0262739013461,2017.8065267673232,-7114.632448399142,1025.1474561498187,24142.920471020447,-2862.0525032289315,-954.3998365106364,2003.5576865371077,-6901.7290098873,1166.043723302148,23997.096645561625,-2867.625754464036,-956.2811830428047,2009.797987366932,-7026.215568536327,894.1072704815053,24198.791360506886,-2887.0456807366118,-952.6631205668617,2023.049077284671,-6990.698141694567,1137.483419193811,24067.157164106087,-2859.9501375176314,-950.6943391274143,1997.2833402802191,-7119.439912034277,1065.1244534442033,24225.716121521767,-2864.243814766656,-959.9928030522256,2026.895838860175,-6978.774354855316,1093.2555417597619,23957.02687986306,-2855.770424523056,-943.1129915701883,2012.504160321898
