AccX,AccY,AccZ,GyroX,GyroY,GyroZ
5464.0,-9992.0,12688.0,1072.0,5190.0,679.0
5100.0,-10220.0,12552.0,1787.0,5217.0,741.0
4904.0,-9792.0,12128.0,2624.0,4813.0,884.0
5088.0,-9140.0,11916.0,2991.0,4182.0,1096.0
5068.0,-8896.0,12172.0,2567.0,4087.0,1335.0
4748.0,-8852.0,12236.0,1906.0,4235.0,1788.0
4632.0,-9656.0,12100.0,1778.0,4163.0,2260.0
4308.0,-10824.0,12220.0,2663.0,4242.0,2311.0
4268.0,-10608.0,12204.0,4011.0,3941.0,2001.0
4052.0,-10628.0,12764.0,4627.0,3669.0,1776.0
3504.0,-10388.0,12960.0,4393.0,3639.0,1616.0
3652.0,-10416.0,12876.0,4724.0,3430.0,1159.0
3916.0,-9876.0,13028.0,5115.0,3249.0,644.0
4284.0,-9152.0,13512.0,5017.0,3247.0,446.0
4008.0,-8352.0,13984.0,4381.0,3845.0,381.0
4332.0,-7444.0,14812.0,998.0,4215.0,203.0
4648.0,-4052.0,15352.0,-9687.0,5060.0,437.0
4596.0,-2440.0,11896.0,-21564.0,2068.0,-326.0
3180.0,-11440.0,11256.0,-24927.0,5802.0,-3425.0
3628.0,-18260.0,11428.0,-16855.0,3801.0,-6956.0
3504.0,-16300.0,10624.0,-5747.0,1389.0,-4504.0
4332.0,-16056.0,10016.0,6776.0,454.0,168.0
4320.0,-17424.0,9392.0,19718.0,-129.0,1974.0
4544.0,-14928.0,9488.0,30027.0,897.0,4282.0
4968.0,-7652.0,11336.0,27480.0,2969.0,7023.0
3992.0,136.0,14088.0,11210.0,5597.0,9333.0
2628.0,-1748.0,14576.0,-8280.0,7893.0,5872.0
2968.0,-9528.0,12948.0,-17743.0,8740.0,-497.0
3112.0,-15452.0,12468.0,-15486.0,8392.0,-5251.0
2568.0,-12832.0,13072.0,-12232.0,6550.0,-4797.0
2716.0,-11148.0,12528.0,-9065.0,5031.0,-2089.0
3200.0,-14372.0,12208.0,-3939.0,4101.0,-1775.0
2752.0,-15416.0,11832.0,5670.0,2797.0,-2094.0
2900.0,-15848.0,11292.0,17799.0,1418.0,394.0
3312.0,-12920.0,12240.0,19876.0,1404.0,3536.0
2288.0,64.0,13592.0,7015.0,4515.0,7189.0
1388.0,-884.0,14040.0,-9964.0,8034.0,8590.0
472.0,-12740.0,11840.0,-18757.0,8324.0,2726.0
980.0,-19316.0,10924.0,-12700.0,6589.0,-4300.0
504.0,-16732.0,11128.0,-2774.0,3412.0,-4235.0
552.0,-15008.0,11468.0,4644.0,1078.0,-80.0
1228.0,-11536.0,11952.0,3463.0,751.0,401.0
908.0,-6120.0,11716.0,-3739.0,1909.0,-214.0
472.0,-8620.0,11624.0,-10811.0,2355.0,-255.0
492.0,-14280.0,9916.0,-10236.0,1412.0,-2986.0
1032.0,-19224.0,9316.0,614.0,-518.0,-3595.0
1232.0,-19616.0,9328.0,16440.0,-2612.0,-417.0
1664.0,-15320.0,10064.0,23752.0,-2705.0,3306.0
2104.0,-3200.0,11928.0,12201.0,-111.0,6726.0
596.0,1856.0,12892.0,-9896.0,3073.0,7140.0
448.0,-10548.0,10096.0,-21182.0,3792.0,-3.0
1868.0,-22168.0,8192.0,-11878.0,3751.0,-7299.0
1692.0,-23776.0,8668.0,7718.0,233.0,-7572.0
2564.0,-18712.0,8564.0,26873.0,-1319.0,-589.0
3296.0,-10888.0,11420.0,20945.0,-582.0,4093.0
2292.0,2240.0,12752.0,4179.0,2971.0,5384.0
944.0,-2368.0,12728.0,-13167.0,4761.0,4218.0
2016.0,-16608.0,9848.0,-16268.0,5654.0,-2318.0
2280.0,-23524.0,10096.0,-3614.0,3753.0,-8377.0
1476.0,-19488.0,10576.0,12602.0,411.0,-2773.0
2680.0,-14784.0,11308.0,20122.0,-460.0,2902.0
2492.0,-5660.0,12644.0,10089.0,965.0,4500.0
1148.0,2152.0,13224.0,-6783.0,3287.0,4728.0
1116.0,-9900.0,11740.0,-16639.0,3617.0,-647.0
2444.0,-21652.0,9964.0,-8862.0,3533.0,-7323.0
1948.0,-21868.0,10380.0,9252.0,216.0,-5924.0
2868.0,-16528.0,10148.0,24694.0,-1125.0,330.0
3144.0,-8528.0,11952.0,17951.0,-189.0,5443.0
1848.0,3240.0,13304.0,-320.0,3423.0,5951.0
852.0,-4548.0,12544.0,-15758.0,4605.0,2820.0
2172.0,-16800.0,10012.0,-16652.0,5687.0,-4455.0
1640.0,-21156.0,10376.0,-4537.0,3390.0,-8400.0
1552.0,-18888.0,11044.0,10940.0,163.0,-1998.0
2740.0,-14352.0,12036.0,18158.0,-652.0,3397.0
2092.0,-4760.0,12892.0,8105.0,781.0,3933.0
772.0,1256.0,13096.0,-7653.0,3077.0,4542.0
1136.0,-11912.0,11452.0,-16064.0,3374.0,-749.0
1828.0,-22024.0,10080.0,-6819.0,2732.0,-6808.0
1244.0,-21160.0,10444.0,10161.0,-804.0,-3691.0
2516.0,-16820.0,9996.0,26479.0,-1913.0,2399.0
2432.0,-8704.0,12296.0,20415.0,-972.0,6618.0
1272.0,3748.0,13980.0,710.0,2629.0,6683.0
96.0,-5048.0,12528.0,-16938.0,3811.0,3243.0
1872.0,-17964.0,10228.0,-18520.0,5467.0,-4248.0
1180.0,-22648.0,9572.0,-2878.0,2823.0,-8236.0
1280.0,-20564.0,10460.0,15179.0,-1451.0,-2070.0
3004.0,-15884.0,10020.0,32144.0,-1277.0,4303.0
2512.0,-8704.0,11792.0,29295.0,10.0,5593.0
1896.0,4892.0,13560.0,10785.0,2699.0,7319.0
812.0,3668.0,14572.0,-12872.0,5967.0,6286.0
348.0,-12324.0,12040.0,-22421.0,5099.0,-1150.0
1828.0,-21256.0,11084.0,-11644.0,4178.0,-7395.0
552.0,-19780.0,11992.0,4963.0,377.0,-4740.0
1660.0,-15108.0,12160.0,15889.0,-1664.0,1272.0
2104.0,-6660.0,13324.0,9804.0,-753.0,2851.0
1156.0,1996.0,13672.0,-6862.0,1506.0,1679.0
1444.0,-5476.0,11812.0,-20649.0,3883.0,-25.0
1864.0,-18344.0,10008.0,-17208.0,3327.0,-6200.0
1400.0,-23676.0,9828.0,1532.0,-146.0,-7070.0
2400.0,-20400.0,9796.0,21930.0,-3109.0,-754.0
3180.0,-9852.0,11692.0,19602.0,-2156.0,4985.0
1968.0,4584.0,13752.0,-1947.0,3090.0,6970.0
132.0,1888.0,11884.0,-23441.0,6354.0,5293.0
896.0,-20472.0,8224.0,-26715.0,5477.0,-4210.0
1676.0,-30064.0,9448.0,-4339.0,-789.0,-12206.0
2020.0,-24688.0,9796.0,25357.0,-5111.0,-4481.0
3808.0,-16048.0,10300.0,32767.0,-5071.0,4309.0
4256.0,1484.0,11816.0,24296.0,-1193.0,7558.0
2356.0,12644.0,14704.0,-4601.0,3839.0,9976.0
-56.0,-5424.0,12264.0,-24426.0,4522.0,5248.0
2876.0,-22104.0,8876.0,-20414.0,4151.0,-6504.0
1492.0,-26136.0,10212.0,291.0,-750.0,-9917.0
2116.0,-18904.0,10732.0,20690.0,-3829.0,-1102.0
3452.0,-10260.0,11368.0,20935.0,-2887.0,6189.0
3180.0,-440.0,13344.0,6820.0,660.0,5921.0
1776.0,-1856.0,13160.0,-9406.0,2798.0,3785.0
2412.0,-13580.0,10596.0,-12588.0,3813.0,-1721.0
2812.0,-22124.0,9768.0,1094.0,1784.0,-6161.0
2528.0,-19168.0,10532.0,17715.0,-325.0,-1777.0
3332.0,-9984.0,12400.0,19774.0,-63.0,5086.0
2944.0,-1652.0,13736.0,4527.0,3375.0,6977.0
1232.0,0.0,13248.0,-12960.0,5910.0,4551.0
1644.0,-14184.0,9884.0,-14954.0,6542.0,-1242.0
2380.0,-26072.0,9980.0,-1040.0,4082.0,-7636.0
1768.0,-19412.0,11804.0,15767.0,-40.0,-3644.0
2536.0,-9144.0,12784.0,17764.0,230.0,2799.0
2176.0,-816.0,13768.0,6577.0,2545.0,6056.0
1492.0,-3204.0,13036.0,-6770.0,4721.0,3168.0
1640.0,-12968.0,12284.0,-11322.0,5735.0,-2897.0
1008.0,-19416.0,12156.0,-963.0,2800.0,-7003.0
1388.0,-18248.0,12688.0,13216.0,-1542.0,-2528.0
2740.0,-9804.0,13308.0,16448.0,-1106.0,2675.0
2048.0,-336.0,14884.0,2978.0,2216.0,4735.0
680.0,-68.0,13552.0,-13736.0,4843.0,2979.0
1340.0,-13264.0,11092.0,-19963.0,5224.0,-2554.0
1284.0,-20956.0,11244.0,-6804.0,1425.0,-7933.0
1880.0,-21240.0,11948.0,12718.0,-2990.0,-3881.0
3244.0,-13000.0,11844.0,23968.0,-2770.0,2122.0
2468.0,-1308.0,13556.0,12546.0,237.0,6124.0
1376.0,2808.0,13616.0,-6545.0,3161.0,6457.0
1364.0,-10768.0,12004.0,-16168.0,4481.0,2075.0
2232.0,-19132.0,10048.0,-9399.0,3854.0,-6080.0
1200.0,-19888.0,11156.0,5269.0,547.0,-4744.0
2612.0,-16288.0,11624.0,18027.0,-2175.0,731.0
2712.0,-8324.0,12564.0,14621.0,-790.0,4950.0
1836.0,1140.0,13976.0,-2152.0,2133.0,4428.0
1380.0,-4452.0,11940.0,-15809.0,4364.0,2381.0
2032.0,-17900.0,10212.0,-16404.0,4916.0,-4687.0
1264.0,-21576.0,10300.0,-1433.0,1269.0,-7233.0
2444.0,-20264.0,11244.0,16588.0,-2378.0,-1645.0
3452.0,-12512.0,10904.0,27209.0,-1361.0,3796.0
2604.0,-2312.0,13780.0,14751.0,1151.0,5816.0
1692.0,3884.0,14484.0,-5912.0,4171.0,6182.0
1256.0,-8508.0,12624.0,-17900.0,5808.0,1885.0
2180.0,-19132.0,10940.0,-13943.0,5082.0,-6453.0
792.0,-20304.0,11396.0,1988.0,931.0,-5816.0
2160.0,-17300.0,12288.0,16308.0,-2459.0,-70.0
2456.0,-9376.0,13004.0,17512.0,-1690.0,4414.0
1732.0,-392.0,14296.0,3168.0,531.0,4119.0
1100.0,-2188.0,12516.0,-12256.0,2960.0,3085.0
1524.0,-15584.0,11524.0,-16669.0,4188.0,-2682.0
1600.0,-20300.0,9996.0,-3617.0,2083.0,-6885.0
1708.0,-20968.0,10848.0,13858.0,-1662.0,-2426.0
3324.0,-13856.0,10636.0,26225.0,-1716.0,3079.0
2624.0,-4200.0,13072.0,16254.0,919.0,6133.0
2016.0,3272.0,14028.0,-2633.0,3706.0,6418.0
1320.0,-7112.0,12500.0,-14946.0,5006.0,2838.0
2124.0,-18188.0,11240.0,-12299.0,4379.0,-5086.0
1416.0,-20280.0,11628.0,3079.0,1613.0,-5698.0
2176.0,-16400.0,12492.0,15524.0,-793.0,-367.0
2372.0,-9628.0,13052.0,17262.0,-5.0,4016.0
2024.0,-2200.0,14036.0,6421.0,1680.0,3758.0
1576.0,-3236.0,13292.0,-6438.0,3304.0,2344.0
1816.0,-13244.0,12380.0,-10073.0,4523.0,-1845.0
1504.0,-15884.0,12348.0,-3915.0,3521.0,-4663.0
1056.0,-15200.0,13080.0,5252.0,309.0,-1283.0
2180.0,-11236.0,13772.0,7909.0,-629.0,1468.0
1848.0,-4144.0,14156.0,-1574.0,1344.0,1940.0
1216.0,-4220.0,13148.0,-12834.0,3243.0,977.0
1812.0,-12716.0,11960.0,-16579.0,3672.0,-3070.0
1700.0,-18596.0,9828.0,-6534.0,2507.0,-4885.0
1676.0,-19320.0,11956.0,8066.0,-993.0,-2166.0
2552.0,-11216.0,12304.0,12614.0,-2056.0,1695.0
2280.0,-4440.0,12168.0,5914.0,116.0,5398.0
1984.0,-7052.0,11720.0,-3136.0,2520.0,4347.0
1640.0,-15316.0,10400.0,-1771.0,2844.0,857.0
1692.0,-18532.0,11484.0,7082.0,444.0,-1107.0
1932.0,-14672.0,11528.0,16239.0,-1301.0,2100.0
2132.0,-7796.0,12816.0,11674.0,292.0,4887.0
1712.0,-3388.0,13096.0,-1093.0,2171.0,4498.0
1368.0,-8708.0,11856.0,-10467.0,3559.0,887.0
1740.0,-17248.0,10516.0,-8060.0,3429.0,-4116.0
1440.0,-19324.0,11032.0,3678.0,794.0,-4154.0
2272.0,-16568.0,11928.0,14852.0,-1923.0,-746.0
2644.0,-9648.0,12568.0,16065.0,-745.0,3215.0
2116.0,-1928.0,13872.0,4549.0,2105.0,3837.0
1344.0,-4660.0,12884.0,-7406.0,4388.0,2651.0
1544.0,-13584.0,11100.0,-11223.0,4324.0,-1315.0
1588.0,-17660.0,12280.0,-2216.0,1795.0,-3560.0
1008.0,-16224.0,13784.0,9379.0,-1612.0,-379.0
1888.0,-9180.0,12608.0,12340.0,-1780.0,3240.0
2412.0,-4164.0,13212.0,1753.0,1113.0,3363.0
1624.0,-4916.0,11752.0,-9119.0,4347.0,1919.0
1716.0,-14976.0,11296.0,-10129.0,5294.0,-1373.0
1032.0,-14316.0,12392.0,-6152.0,3068.0,-2812.0
1008.0,-12652.0,12480.0,-2371.0,1195.0,-101.0
1416.0,-13612.0,12436.0,432.0,848.0,1250.0
1300.0,-9804.0,12156.0,-2591.0,941.0,254.0
1612.0,-10144.0,10416.0,-5566.0,1319.0,676.0
1640.0,-15444.0,9652.0,-1636.0,890.0,-8.0
1772.0,-19268.0,10040.0,9389.0,-704.0,-76.0
1464.0,-14816.0,10948.0,17473.0,-2343.0,2424.0
1764.0,-6740.0,12732.0,9606.0,-1415.0,4322.0
2276.0,-3800.0,11860.0,-4339.0,1744.0,3902.0
1284.0,-13320.0,10204.0,-12003.0,5289.0,-337.0
1512.0,-16600.0,9768.0,-8142.0,4582.0,-4827.0
1484.0,-19740.0,9920.0,3624.0,1450.0,-3045.0
1704.0,-16236.0,11072.0,14982.0,-1347.0,127.0
2060.0,-9024.0,12560.0,12064.0,-1117.0,3151.0
2300.0,-1144.0,13104.0,-3303.0,1885.0,3006.0
1592.0,-9428.0,10496.0,-14429.0,5968.0,919.0
1492.0,-18688.0,9212.0,-11077.0,5553.0,-4665.0
1600.0,-21332.0,9692.0,3913.0,1374.0,-4252.0
1704.0,-17416.0,11212.0,18002.0,-2286.0,38.0
2028.0,-10456.0,11580.0,21503.0,-2513.0,5186.0
2544.0,-1644.0,13092.0,6592.0,-43.0,5167.0
1740.0,-3792.0,11424.0,-9781.0,4543.0,3845.0
1024.0,-16356.0,11176.0,-13731.0,6515.0,-2221.0
1072.0,-17552.0,10332.0,-5974.0,3592.0,-5788.0
992.0,-18792.0,10624.0,7266.0,354.0,-2007.0
1548.0,-14304.0,11512.0,16046.0,-1862.0,1644.0
1832.0,-8384.0,12252.0,12138.0,-1311.0,3767.0
1952.0,-2248.0,12612.0,-1288.0,1479.0,3019.0
1244.0,-10636.0,10420.0,-10662.0,5524.0,1102.0
948.0,-18260.0,10964.0,-7475.0,4878.0,-3406.0
724.0,-17872.0,10700.0,3788.0,1037.0,-2490.0
1488.0,-14852.0,11324.0,12697.0,-1308.0,1443.0
1660.0,-10008.0,12580.0,10282.0,-958.0,3698.0
1828.0,-3040.0,12960.0,-3608.0,1319.0,2432.0
1372.0,-9028.0,9900.0,-14102.0,5113.0,84.0
1600.0,-18648.0,8968.0,-11842.0,5452.0,-4844.0
1428.0,-22752.0,9380.0,5322.0,1256.0,-4404.0
1412.0,-17908.0,11224.0,19828.0,-2626.0,-524.0
1812.0,-9776.0,11520.0,22421.0,-2826.0,5324.0
2656.0,-1776.0,13044.0,7796.0,153.0,6170.0
1856.0,-3068.0,12332.0,-8138.0,4992.0,4199.0
1108.0,-14276.0,11864.0,-14477.0,7441.0,-1847.0
1200.0,-17768.0,10396.0,-7982.0,5161.0,-6065.0
884.0,-18196.0,10424.0,2157.0,2558.0,-3341.0
1244.0,-14428.0,11668.0,10336.0,-533.0,645.0
1584.0,-9588.0,12236.0,7559.0,-880.0,2397.0
1540.0,-4496.0,12484.0,-3936.0,1357.0,1079.0
1648.0,-10512.0,10432.0,-12297.0,4625.0,-930.0
1600.0,-18480.0,8568.0,-7509.0,4818.0,-4549.0
1552.0,-22524.0,8756.0,8192.0,2108.0,-3178.0
1452.0,-16920.0,10636.0,21859.0,-1682.0,1084.0
1532.0,-9176.0,12812.0,20858.0,-2373.0,6281.0
2408.0,-96.0,13412.0,7014.0,638.0,6962.0
1588.0,-5548.0,11708.0,-7923.0,5828.0,4043.0
596.0,-15340.0,11772.0,-11833.0,6847.0,-2861.0
456.0,-17960.0,11328.0,-4269.0,3189.0,-5187.0
436.0,-16232.0,12184.0,5074.0,332.0,-1968.0
1108.0,-11956.0,12296.0,9685.0,-912.0,1529.0
1440.0,-7824.0,13128.0,3512.0,-315.0,1310.0
1240.0,-5072.0,11976.0,-7283.0,1900.0,-459.0
1400.0,-13596.0,10056.0,-11471.0,4066.0,-2508.0
1516.0,-19632.0,9304.0,-2262.0,2438.0,-4125.0
1472.0,-19728.0,10232.0,11916.0,-231.0,-1561.0
1752.0,-12748.0,10904.0,21264.0,-1793.0,3486.0
1992.0,-6788.0,12820.0,14032.0,-369.0,6125.0
2036.0,-680.0,12912.0,-789.0,2873.0,5436.0
1084.0,-10316.0,11260.0,-10979.0,6368.0,1366.0
628.0,-16852.0,11384.0,-9560.0,5311.0,-4378.0
364.0,-17560.0,10876.0,1223.0,1685.0,-3368.0
848.0,-16356.0,12004.0,11685.0,-1439.0,271.0
1468.0,-10932.0,12072.0,16489.0,-2585.0,3285.0
1864.0,-4308.0,13868.0,5148.0,-810.0,2803.0
1520.0,-3408.0,12608.0,-8496.0,2851.0,1853.0
1164.0,-14232.0,10760.0,-13775.0,5455.0,-1833.0
1196.0,-18908.0,8604.0,-3646.0,3541.0,-4482.0
1416.0,-21740.0,10572.0,12940.0,-788.0,-1294.0
1480.0,-13640.0,11480.0,24917.0,-3884.0,3685.0
2248.0,-4792.0,13484.0,15860.0,-1916.0,7087.0
2208.0,1744.0,13888.0,-3541.0,3255.0,5969.0
560.0,-8688.0,12440.0,-17212.0,7964.0,651.0
680.0,-16704.0,11268.0,-18845.0,7354.0,-6813.0
484.0,-18248.0,10452.0,-9501.0,4046.0,-7044.0
204.0,-18652.0,12052.0,2560.0,-14.0,-3286.0
1164.0,-12484.0,12324.0,6847.0,-2813.0,-17.0
1744.0,-7864.0,12256.0,135.0,-1374.0,615.0
1616.0,-8332.0,10900.0,-7436.0,2189.0,-280.0
1680.0,-15572.0,8636.0,-5561.0,4011.0,-2287.0
1816.0,-21472.0,7796.0,6509.0,2571.0,-2335.0
1768.0,-18608.0,9512.0,20543.0,-531.0,909.0
1384.0,-10980.0,12144.0,22223.0,-2459.0,6487.0
1860.0,36.0,13692.0,8326.0,105.0,7691.0
1464.0,-3476.0,12672.0,-8365.0,4957.0,4676.0
804.0,-14796.0,11112.0,-15059.0,6808.0,-3289.0
1152.0,-17224.0,9536.0,-7894.0,4597.0,-7318.0
1252.0,-20068.0,11020.0,5804.0,630.0,-3701.0
1192.0,-15236.0,12000.0,17428.0,-2949.0,924.0
1640.0,-8320.0,13284.0,14814.0,-2886.0,4010.0
2072.0,-304.0,13924.0,-887.0,251.0,3533.0
1244.0,-6564.0,11556.0,-13783.0,5242.0,1559.0
1208.0,-17516.0,10348.0,-13791.0,6577.0,-4440.0
1376.0,-21388.0,7780.0,95.0,3595.0,-5648.0
1560.0,-20940.0,10528.0,16700.0,-1055.0,-1271.0
1496.0,-12416.0,11772.0,26156.0,-4513.0,5259.0
2488.0,-1168.0,13888.0,12833.0,-2017.0,7540.0
2256.0,1316.0,12872.0,-6749.0,4218.0,6143.0
800.0,-13116.0,11628.0,-16818.0,8407.0,-928.0
908.0,-18636.0,9108.0,-10000.0,6497.0,-7698.0
1040.0,-22520.0,9764.0,4934.0,2107.0,-4793.0
992.0,-16592.0,12496.0,18723.0,-3071.0,880.0
1116.0,-7512.0,12916.0,17916.0,-3376.0,5422.0
2424.0,-2116.0,12776.0,5627.0,321.0,5224.0
1516.0,-8076.0,12172.0,-4317.0,4781.0,1641.0
1004.0,-14700.0,12496.0,-4569.0,5633.0,-3321.0
1136.0,-14504.0,11876.0,505.0,3752.0,-3204.0
964.0,-13060.0,12588.0,4975.0,2248.0,381.0
832.0,-9000.0,14160.0,2786.0,1327.0,1744.0
748.0,-6400.0,13752.0,-4060.0,1711.0,398.0
840.0,-10348.0,12016.0,-10018.0,2808.0,-2426.0
900.0,-16172.0,10348.0,-4201.0,1750.0,-3699.0
1200.0,-19464.0,11124.0,8173.0,-584.0,-1881.0
1264.0,-11932.0,12288.0,14129.0,-2021.0,2438.0
1344.0,-4776.0,13360.0,7003.0,-436.0,5493.0
1388.0,-5464.0,11776.0,-3747.0,2977.0,4392.0
884.0,-14596.0,10636.0,-6893.0,4341.0,147.0
896.0,-17120.0,12044.0,-149.0,1515.0,-2806.0
964.0,-13532.0,12432.0,7074.0,-911.0,631.0
1524.0,-10508.0,12664.0,7705.0,-620.0,3658.0
1288.0,-7428.0,13392.0,1176.0,499.0,2126.0
1232.0,-8804.0,12168.0,-4827.0,1978.0,-158.0
1372.0,-14376.0,11032.0,-4857.0,2417.0,-2545.0
1208.0,-15444.0,11112.0,565.0,1339.0,-1895.0
1108.0,-13720.0,11444.0,6080.0,123.0,859.0
1232.0,-10752.0,12572.0,4765.0,111.0,2668.0
1092.0,-6844.0,12684.0,-1773.0,1510.0,1781.0
1260.0,-11388.0,10888.0,-5114.0,3322.0,-166.0
1456.0,-17012.0,9900.0,-1009.0,3049.0,-2445.0
1228.0,-16752.0,11292.0,8349.0,577.0,-359.0
1348.0,-12576.0,11928.0,14698.0,-934.0,3583.0
1580.0,-7172.0,13236.0,9344.0,219.0,4906.0
1240.0,-4328.0,13228.0,-1824.0,2715.0,3327.0
616.0,-11412.0,12180.0,-8313.0,4758.0,-621.0
528.0,-16112.0,10880.0,-5971.0,3800.0,-3986.0
428.0,-17704.0,11280.0,3248.0,894.0,-2435.0
1004.0,-14880.0,12308.0,12068.0,-1946.0,928.0
1496.0,-9084.0,13204.0,10505.0,-1678.0,3225.0
1492.0,-3216.0,13544.0,-479.0,1101.0,2512.0
1040.0,-8632.0,12032.0,-9005.0,4424.0,175.0
960.0,-15500.0,10808.0,-9377.0,4443.0,-3920.0
876.0,-17008.0,10704.0,-236.0,1478.0,-3188.0
1024.0,-16556.0,11868.0,10233.0,-1483.0,497.0
1300.0,-10144.0,12292.0,13389.0,-2015.0,3820.0
1700.0,-4744.0,13312.0,3969.0,-126.0,3671.0
1196.0,-6388.0,11764.0,-6654.0,3306.0,1770.0
956.0,-15376.0,10880.0,-8303.0,4286.0,-2234.0
940.0,-17448.0,10732.0,305.0,1715.0,-3127.0
1100.0,-16252.0,11632.0,10415.0,-1138.0,590.0
1380.0,-11092.0,12340.0,14037.0,-1714.0,3979.0
1588.0,-6016.0,13500.0,6022.0,-62.0,4067.0
1248.0,-6176.0,12704.0,-4300.0,2985.0,2072.0
904.0,-13356.0,11492.0,-8006.0,4512.0,-1695.0
1008.0,-16232.0,10948.0,-2636.0,2768.0,-3343.0
968.0,-16436.0,11540.0,6074.0,343.0,-761.0
1204.0,-12956.0,12400.0,11585.0,-1378.0,2440.0
1372.0,-6456.0,13596.0,5048.0,-340.0,2943.0
1400.0,-5036.0,12516.0,-5350.0,2506.0,1620.0
1052.0,-14636.0,10164.0,-6874.0,4142.0,-1605.0
1284.0,-19128.0,10688.0,1336.0,2234.0,-3700.0
964.0,-15224.0,12224.0,12129.0,-1123.0,343.0
1316.0,-8412.0,13052.0,11368.0,-920.0,4280.0
1528.0,-4076.0,13648.0,565.0,1447.0,3953.0
956.0,-8076.0,12564.0,-9101.0,4156.0,204.0
756.0,-15340.0,11068.0,-8987.0,4263.0,-4350.0
988.0,-18312.0,10120.0,403.0,2092.0,-3939.0
972.0,-16808.0,11952.0,12078.0,-1148.0,108.0
1332.0,-9568.0,12844.0,14016.0,-1863.0,4092.0
1572.0,-2676.0,13992.0,1583.0,683.0,4067.0
964.0,-5900.0,12028.0,-10675.0,4623.0,1340.0
872.0,-16420.0,11000.0,-12894.0,5363.0,-4168.0
1000.0,-18936.0,9788.0,-2808.0,2893.0,-5601.0
1064.0,-19448.0,11948.0,11359.0,-856.0,-1197.0
1496.0,-11336.0,12128.0,18577.0,-2681.0,3697.0
2060.0,-3508.0,13568.0,8132.0,-440.0,5075.0
1436.0,-2688.0,12760.0,-7025.0,3813.0,3125.0
820.0,-13048.0,11052.0,-13405.0,5996.0,-1993.0
1088.0,-18792.0,9000.0,-5516.0,3901.0,-5959.0
1396.0,-21788.0,10984.0,10782.0,-455.0,-2331.0
1288.0,-13372.0,12336.0,22619.0,-3773.0,2909.0
2020.0,-5100.0,13392.0,15217.0,-2255.0,6715.0
1956.0,988.0,13376.0,-2011.0,2164.0,5131.0
676.0,-9668.0,11408.0,-13061.0,6485.0,523.0
1088.0,-17700.0,9964.0,-9007.0,5499.0,-5936.0
972.0,-21096.0,10272.0,5983.0,1652.0,-4114.0
856.0,-15588.0,12832.0,18360.0,-2412.0,907.0
1416.0,-5604.0,14016.0,13598.0,-1939.0,5364.0
1768.0,-140.0,13792.0,-2353.0,1958.0,4399.0
780.0,-9568.0,11440.0,-12714.0,5980.0,-142.0
1072.0,-16540.0,11200.0,-11892.0,5450.0,-6421.0
696.0,-17972.0,10936.0,236.0,2195.0,-4868.0
1096.0,-17100.0,13264.0,12160.0,-1079.0,-409.0
1164.0,-8824.0,13516.0,14326.0,-1624.0,3650.0
1804.0,-2436.0,13892.0,3243.0,575.0,4381.0
1200.0,-6368.0,11992.0,-7852.0,3713.0,2158.0
528.0,-15064.0,11404.0,-9626.0,4160.0,-2631.0
820.0,-16768.0,10000.0,-1211.0,1448.0,-3536.0
1204.0,-18288.0,11588.0,10026.0,-1222.0,144.0
1096.0,-11292.0,12752.0,16689.0,-2368.0,3652.0
1464.0,-6440.0,13476.0,9643.0,-991.0,4747.0
1604.0,-4836.0,12996.0,-553.0,1574.0,3129.0
