IMU1_AccX,IMU1_AccY,IMU1_AccZ,IMU1_GyroX,IMU1_GyroY,IMU1_GyroZ,IMU2_AccX,IMU2_AccY,IMU2_AccZ,IMU2_GyroX,IMU2_GyroY,IMU2_GyroZ,IMU3_AccX,IMU3_AccY,IMU3_AccZ,IMU3_GyroX,IMU3_GyroY,IMU3_GyroZ,IMU4_AccX,IMU4_AccY,IMU4_AccZ,IMU4_GyroX,IMU4_GyroY,IMU4_GyroZ,IMU5_AccX,IMU5_AccY,IMU5_AccZ,IMU5_GyroX,IMU5_GyroY,IMU5_GyroZ,IMU6_AccX,IMU6_AccY,IMU6_AccZ,IMU6_GyroX,IMU6_GyroY,IMU6_GyroZ,IMU7_AccX,IMU7_AccY,IMU7_AccZ,IMU7_GyroX,IMU7_GyroY,IMU7_GyroZ,IMU8_AccX,IMU8_AccY,IMU8_AccZ,IMU8_GyroX,IMU8_GyroY,IMU8_GyroZ,IMU9_AccX,IMU9_AccY,IMU9_AccZ,IMU9_GyroX,IMU9_GyroY,IMU9_GyroZ,IMU10_AccX,IMU10_AccY,IMU10_AccZ,IMU10_GyroX,IMU10_GyroY,IMU10_GyroZ,IMU11_AccX,IMU11_AccY,IMU11_AccZ,IMU11_GyroX,IMU11_GyroY,IMU11_GyroZ,IMU12_AccX,IMU12_AccY,IMU12_AccZ,IMU12_GyroX,IMU12_GyroY,IMU12_GyroZ
1480.0,3368.0,16476.0,1708.0,1374.0,291.0,1418.0520907325551,3372.3919805624337,16471.295683477267,1715.2201816815164,1389.4685320743235,279.6668904133414,1552.1167249232353,3368.928655111513,16445.162514933792,1705.8719771888248,1387.994459900764,301.33623807895464,1634.3064145186067,3408.902931977864,16469.737324344263,1709.8909939693654,1391.164413126597,294.54929518131905,1624.0685120212913,3384.30319938909,16616.035809768717,1705.293909443117,1380.453182301747,276.0833823597452,1406.1516744429139,3408.4333653154117,16516.60514439586,1701.426721267489,1365.1901598495629,305.03694851623743,1512.743691230668,3347.4055184277895,16430.427491367474,1724.1283451453796,1370.7993308781804,299.09311043481836,1496.7107186988821,3573.7309589313613,16446.57818326807,1711.7920818992861,1403.1063304549666,291.8050437822487,1497.4210342826038,3370.5603273525912,16544.85627499552,1705.5402690820724,1367.3760932706116,308.45412195914946,1349.998490020596,3305.6586635357316,16519.148651420102,1708.7677048126584,1373.2699108240006,291.12346375654437,1577.361945915401,3400.103324921881,16526.407781580194,1703.1976083824356,1391.1813225808978,281.22644966556356,1559.177253144924,3296.4054470590972,16464.41982628301,1711.978538559162,1355.5097490935752,278.1018097333741
1524.0,3416.0,16416.0,1772.0,1335.0,285.0,1475.1389747027754,3550.370766177668,16318.11675077093,1758.690966393354,1346.37523001358,268.19781223291176,1575.889611631039,3491.9798020322164,16235.976065040297,1778.3190904831151,1319.8929613031914,290.4612270046102,1600.798250825148,3301.351312872364,16439.277190982943,1771.8571776776755,1329.0348554291782,271.23035622734164,1525.7609708455134,3344.402077690712,16413.03344859916,1758.2648824277069,1352.3679159549777,287.6704555418987,1432.5730193277873,3281.2917157653314,16479.769020505817,1769.5769543049703,1341.7875030827404,274.8704831532428,1544.0416823611856,3481.4635292784747,16232.351531502085,1750.306524607554,1344.5825862418112,302.45497184354366,1594.3175051708135,3284.4497624881997,16374.891422206847,1777.4944993821289,1330.0974307396152,291.3879485946898,1426.3900347533884,3383.982660502734,16210.827138357397,1760.750937525288,1331.1803348881126,306.09829765359206,1486.7566167909865,3440.4189748396648,16520.055387025903,1772.7663248969031,1331.0401326452227,268.0004972960795,1627.288548419931,3528.3935373868526,16549.634261731942,1771.9288203144583,1335.510482251154,292.57933083236287,1515.9906449050495,3267.451897727466,16545.486116277527,1767.2750131434736,1348.6351471595824,272.093092757406
1564.0,3184.0,16552.0,1733.0,1352.0,302.0,1597.8462781064268,3184.3987570887143,16592.495594312688,1749.673173294906,1350.407603049451,305.3569346070693,1622.151395003192,3330.8464134120295,16487.380634808866,1741.5391967320845,1360.2125279962415,310.3491696172978,1407.698086329231,3276.9906344372193,16633.893937517558,1721.9877008051326,1347.5503032974093,296.16875074199476,1484.6974340818879,3110.3135350632024,16618.756045738664,1722.3710043771962,1356.3493834056512,296.36892455173,1601.1912686837904,3252.753412182293,16408.64809188296,1714.4918927079932,1363.5647666867314,285.1337173323827,1315.3490393478796,3281.4715524147723,16727.19375915417,1738.5708705941436,1349.4065638314428,298.3964383229307,1577.6553901701363,3130.6507267788993,16520.0071373974,1735.2303465932068,1349.870824079643,283.6023514642657,1737.4475587749675,3027.922450853462,16571.889241810295,1729.3883879948812,1332.1819071810864,290.26930780135893,1615.0290632411177,3184.5359999443876,16551.206423847158,1725.2899244661883,1361.1776221010107,313.0713621726602,1483.493556993888,3267.91582145972,16561.008797143302,1741.0964173684745,1350.3679238224674,278.2281401257095,1669.311772504267,3285.2310756831052,16597.655134684363,1740.110329819949,1343.804925214875,301.1941623530773
1544.0,3236.0,16468.0,1778.0,1378.0,276.0,1532.9387511661396,3438.527645936294,16330.87474695112,1773.088755540087,1380.7037144744638,280.0283837365415,1598.5820992861513,3321.6796657723235,16322.857115284107,1786.1087335588222,1375.6157485409503,280.7883265284593,1558.4154517657603,3383.122906627202,16361.385205972018,1771.1101916187772,1392.7201301036002,293.8119011389013,1644.764449930981,3357.146553783285,16526.896960870014,1780.5530786337615,1371.449289646367,280.1053200767268,1576.8435228862961,3329.4488505912223,16431.807467202267,1781.8766422278454,1386.8717948642125,268.4154241618532,1602.4850939252801,3181.7883753647607,16577.941901761093,1783.9962593699765,1380.1637551642632,273.88366881590025,1474.6977436953357,3233.9382561771345,16454.540192477467,1788.0423018064084,1370.631010571057,265.57358298694265,1557.9896775155096,3199.051099265665,16430.287891020518,1793.5606434620438,1387.7920787643786,277.04293925850766,1706.015126125159,3262.1573379984247,16324.605423233232,1767.8113457333939,1384.5124203801722,279.47971352411776,1625.376573379603,3061.5910744895805,16381.271423670432,1783.684990951217,1367.0903696255216,266.61763684433095,1402.3421515865948,3223.0158974234055,16410.033417364582,1789.4534903201913,1372.2763226449695,281.63533818077644
1504.0,3420.0,16444.0,1769.0,1346.0,323.0,1458.692176235632,3495.7785406371636,16383.374649744985,1772.9520893173376,1343.6726921484938,336.9130989584846,1691.5109778843716,3730.9990605429384,16375.140281635538,1772.6490683942554,1338.1783313980527,331.5711434821552,1515.7647319229259,3571.5088700742285,16524.8799915147,1762.5227148795839,1348.991634202373,315.2648925343635,1469.538613369712,3580.791606147519,16238.632401921092,1774.6835820893214,1336.9823101309457,337.37302887625157,1618.9723175586644,3494.0379555113236,16527.588139371368,1791.4534633813787,1343.5690947246155,329.88778489562014,1521.8595897661962,3526.0933026808657,16445.955398521084,1750.2135393787582,1345.289705913193,343.7308703229485,1545.500037856436,3414.4075616630626,16429.385495087135,1774.571861027532,1337.3666912208557,334.97627905354403,1329.327099165965,3332.473150493727,16372.036325545805,1758.3725607317535,1329.7443474710367,316.6747944277443,1592.0256926479396,3362.333236077933,16450.557550286005,1759.7128986258538,1352.9460980486697,325.02630864263455,1463.6457232932137,3462.3562948637627,16375.21847530438,1772.693914149928,1346.2353743693213,340.94752297352284,1554.2687640191252,3649.1495184097494,16501.828503047236,1756.6386292741192,1358.3060342137887,322.6892757068005
1540.0,3336.0,16516.0,1707.0,1344.0,301.0,1652.5617632709316,3341.8188778049794,16482.848726732173,1704.9029406476275,1346.3548011281075,294.31332905072645,1597.0607950708352,3360.8060176069484,16503.667634168876,1704.1656968353202,1344.946126810963,280.89536112559506,1759.9625311642935,3432.2308974989073,16509.72478447391,1717.5631520317736,1335.01338181118,302.8399461337325,1351.8988351897801,3276.1074974599783,16553.71361706236,1699.2319785146578,1340.8400280741455,297.55430029217234,1719.927264977025,3300.979670202897,16422.918669030336,1698.198627425031,1349.4373322481345,312.6182515837332,1681.5488822574991,3352.5465359160366,16327.850107218374,1709.3827087921843,1358.7506937407645,307.27502544634734,1716.222254557994,3335.432167368678,16449.139019398746,1713.9232425689586,1340.3161427592847,310.11712046748147,1537.3473993013993,3484.8070057494283,16523.535182506992,1717.517813748987,1340.8632835582978,298.0979966128812,1502.946930909153,3459.0389704576014,16468.4290078423,1700.892036414644,1366.8299804789224,282.4482175421242,1548.6346819128212,3288.3000543634294,16277.006747141075,1703.279385138078,1357.439740433723,302.7327394420472,1573.2126436261697,3340.348273983878,16636.847253891458,1701.601521705832,1332.9735192153273,281.0946065809893
1532.0,3460.0,16488.0,1737.0,1381.0,271.0,1297.9423236372338,3408.482204879809,16370.69411748382,1729.4030515007137,1378.129333609647,268.93950542640044,1578.4863872059054,3454.5817843115565,16498.91037929713,1739.1661443050045,1389.164327137928,265.3584887676061,1415.3831767229358,3382.657812185358,16393.90735044895,1720.200210643069,1385.7727214869128,259.280723591563,1401.43450965911,3413.449468892092,16496.792060916738,1753.8084121534794,1393.1089231475808,248.10772508160912,1453.251069690795,3322.708837350602,16396.14356849931,1742.7385890598148,1391.2195839192739,256.18744338280516,1622.355444775941,3312.1765676229224,16499.505863048216,1761.478128483658,1399.7786189909577,260.0377944719367,1504.583674614423,3490.4267044213993,16448.33673440783,1720.1732250360774,1383.0901935345516,278.85069186467604,1482.3096546300858,3448.723230315748,16649.790843122493,1741.285709879974,1371.9173210244635,271.1090714168306,1497.624133098054,3327.9415576856063,16491.225183221137,1740.3828422935223,1379.4825314045597,269.62596299809485,1487.8785921695967,3237.008072176631,16335.753308688389,1741.2775599313316,1391.714560358584,266.1245196027488,1641.5685966350013,3438.268941817259,16567.868588409397,1750.4596677891614,1384.3978903971024,276.3905374874621
1480.0,3304.0,16544.0,1754.0,1372.0,276.0,1541.844852370279,3130.4089863237773,16513.395293461075,1754.5517346540018,1381.6591624855769,262.9168971707979,1628.7200228849924,3229.6524608214677,16553.598142020037,1743.6333251344518,1375.3093746390693,263.1255157647256,1529.4606782461126,3385.9100389217556,16427.774217553568,1745.0836860969173,1373.9081034734857,262.74145435391955,1627.7825116228514,3334.7051564545136,16385.159833255493,1756.901080897396,1379.5251796738069,268.2422707897666,1278.78642888145,3375.458491018909,16687.99611620523,1743.5190730261613,1355.524863556949,265.612911856315,1527.231215677062,3290.791986121336,16706.24168164086,1768.8432310648338,1369.7282996451543,261.63183412344557,1564.1116752876112,3348.3899899070907,16600.49455629161,1755.2755773280344,1383.6027807348844,290.53934125002394,1423.1844041385366,3417.191699762858,16559.697176376103,1748.3023533959076,1371.8397738424417,269.89687152891844,1542.3967370905207,3452.0861508670914,16541.990341483775,1759.1081748343597,1371.3556721679922,271.1166655205112,1385.661814892407,3508.9721050892153,16626.499759741597,1766.9809602842743,1369.6097607869199,267.1652412782886,1297.6383207758654,3265.6117546785304,16516.910809789213,1761.212102025438,1370.2520527317329,288.0062333485493
1476.0,3364.0,16528.0,1749.0,1375.0,278.0,1595.7528433096154,3429.665971004333,16423.018003103716,1738.4402292539687,1364.5651921598285,278.78800390450283,1364.4096905528797,3404.717778316767,16649.481600295858,1739.8724570042382,1376.3121560824554,280.23265027473934,1472.1206941502876,3629.5293726054483,16452.76372939863,1748.5126996172191,1386.148619552247,282.72139809391706,1566.820923998448,3379.68127610153,16509.49741409517,1751.5571735968947,1388.1473047198072,280.6067926143075,1290.0119715690155,3596.1619711769,16406.577925008187,1746.5115918273773,1372.3283517894474,266.5573998395684,1445.7630961801146,3212.9889059197,16467.35362131877,1764.0084845958177,1349.2029478427417,289.5114155889193,1383.3224170796798,3430.419828743392,16570.0700452794,1748.9172581860737,1367.8016653144814,264.1994489938297,1520.8909284656963,3338.1876025805022,16420.240513242596,1743.3188572057547,1373.7977508808576,277.2988260415946,1690.127479290189,3344.12683186093,16509.279340706817,1746.3575852380793,1395.5418169099485,271.14731470374346,1586.1596672682579,3375.5298592260324,16471.23393897978,1750.968141070549,1383.0311884272908,287.5595531661498,1412.3163737677928,3446.113966206065,16562.836873510365,1743.634002571489,1392.4991202758283,271.9494160755587
1512.0,3328.0,16500.0,1768.0,1350.0,297.0,1547.4735515412328,3548.5278638873656,16503.831050846795,1752.8603926899132,1352.2321714019902,280.1401357964613,1598.932090831861,3417.263251203343,16496.564209818993,1757.2324879622897,1350.591468695212,301.0620936531569,1471.6039742595929,3258.305108187935,16347.838272070167,1773.6229665065716,1358.1407209828556,302.2679289684834,1322.1399613133337,3145.727769936539,16517.122826609477,1753.5924907873834,1363.6310841747381,296.0014960183831,1426.0130502722793,3469.0593685003596,16557.138166198456,1764.8315685265943,1346.5380277972315,315.36242802915143,1392.4661372387604,3406.018337326844,16626.268854374375,1780.5678144907672,1356.1693529667507,284.11973773623754,1602.6751565209424,3459.725582484751,16469.258759867702,1752.4308625891242,1364.0477227832266,277.11446382204736,1426.156629886362,3366.3151217153522,16363.046895165888,1781.4075882163186,1341.2917888481902,281.7477155285935,1578.8640810730121,3395.6688632991986,16553.65314733732,1767.808307045449,1348.6248172541896,275.1951065066355,1457.4474648055348,3226.5413287786764,16502.550542354606,1753.3428620825869,1342.2253302479633,297.21619097752927,1604.4105934636182,3240.0239696981157,16560.690533914138,1752.1289165109474,1342.8038706686718,306.0608151751227
1476.0,3364.0,16504.0,1790.0,1353.0,252.0,1375.4314008553654,3391.498431579802,16480.125514256364,1792.4542926131987,1354.302782854248,263.3199211161619,1543.1175530457285,3442.9378968137294,16583.059294824056,1797.6211604017715,1358.8864263799128,260.1760797599205,1280.61305651157,3327.5477325231595,16600.877282425266,1793.3219393791312,1341.2990047264116,249.6179144954085,1293.3936155962904,3550.42124599996,16551.464788767826,1800.1055994888798,1346.3298890761225,244.58254746819804,1518.45791301239,3135.6276370557807,16553.4823679914,1786.8450283090312,1351.6746987901815,237.83293677273593,1767.4593316753628,3198.841233353412,16465.22473446749,1788.8548282930044,1338.2441618914856,227.5890598121937,1592.7130921904488,3448.9009163524947,16669.660445197085,1795.1312081873316,1350.8812361137075,255.7478491439356,1557.9739806173116,3204.7175505150713,16486.827900238353,1787.5244463927388,1339.2380342224317,258.7469983935565,1320.216439832382,3312.6099870472567,16381.616139217316,1783.3589847330582,1349.9778908941137,262.6648116531635,1389.5906159396213,3420.69921024995,16542.680829632405,1788.8821974588282,1346.6445042391442,245.0759967164098,1404.1087702084633,3476.713662008574,16619.35369847766,1784.5702006124056,1365.957251759278,269.821772626977
1532.0,3332.0,16508.0,1681.0,1360.0,269.0,1538.4597568941927,3420.7810303572137,16509.714127547344,1686.3824638929314,1362.869564655019,268.2497742932314,1577.2102298028553,3293.421702575456,16346.753521212491,1673.497717687239,1358.515576109195,268.3833444323757,1664.3079523669246,3307.630492396585,16534.11584604682,1665.1857052699422,1366.9427691059675,271.32379701386947,1415.8289589811718,3420.380633434905,16433.302705734222,1676.607781752995,1354.114790862587,262.49848509878376,1484.404389044019,3320.8062841403666,16663.790313209745,1686.3112614795862,1363.0979255950947,254.0894203170831,1505.6054556511044,3316.621148623179,16637.422735143085,1678.1172342107332,1370.1535147059972,281.12553143444325,1636.4031722389595,3253.3459477011966,16603.719117471825,1671.2791342210446,1371.3970201243824,255.89413327522666,1545.9276916382664,3282.166922671522,16549.133427757824,1692.8065078190943,1355.0447938938914,274.4068787538232,1631.4200419381802,3308.4163272818373,16485.147857887612,1678.5333762904945,1352.7693103034935,265.78875849710187,1334.8286749546562,3245.7137970064528,16540.05853277193,1680.4954643094102,1348.6010916447526,269.88447207026655,1702.4833771623826,3390.7118330131966,16518.317138758044,1684.0982918137845,1356.2536431389353,277.7460185044993
1504.0,3292.0,16544.0,1691.0,1339.0,244.0,1446.6404122359563,3409.1259565328423,16561.855674777904,1692.4911591820694,1321.432873935991,252.483889005408,1431.1648839159893,3321.703579844054,16530.74994858138,1688.8054376938233,1315.303056863605,252.91106217565164,1612.0431190270613,3350.828342060613,16554.387374252667,1687.7290064385609,1346.9432836304645,242.3838498359142,1492.2242261097092,3149.5052788608787,16456.892430399366,1678.6932020330107,1326.7022412520816,244.30104865562916,1368.6785681416347,3386.4782579352277,16730.347338607142,1682.4208778368222,1346.6940550281847,235.80122675433503,1576.7629200688361,3366.3650634470173,16703.341258070566,1700.9459441148372,1350.6406925691747,270.40122517877757,1551.9669339868765,3036.2884680115503,16605.236204114997,1688.7087156649286,1352.8880189822812,247.84475679473184,1425.0214715444322,3199.0194502152517,16686.90538251157,1701.1944243952182,1339.1195305971073,233.4195503465122,1562.0618864812257,3413.4190993199836,16556.908702209268,1698.1856593071323,1339.3457072985045,246.8976449317145,1516.4093732546744,3342.013403417995,16384.013943629547,1690.839700175539,1346.7560145931018,259.9814312772685,1687.0874781439343,3285.831782157697,16595.254962418003,1704.7149108956462,1333.324368726053,264.2345232877483
1508.0,3384.0,16440.0,1741.0,1380.0,299.0,1406.6037915046882,3408.8255939290348,16442.77664300591,1745.4484505383127,1388.1637937734747,301.3736506846366,1444.4328697767926,3419.9177356396935,16480.477230750465,1754.4127124533813,1374.4028660133968,291.35573575955283,1445.6585011560876,3253.52237119823,16341.585669888938,1722.4441688511192,1405.7559631317074,290.24954554650304,1444.9367106583586,3367.0132700072463,16435.386046037827,1757.2322475254612,1371.074777151211,295.2475774213875,1421.7319768838356,3478.415977857118,16480.14452837687,1730.696408550728,1392.518852069283,316.30906871068794,1633.0782116508806,3372.728995852661,16422.58239504875,1748.5390019307292,1375.9192960614039,298.2757780166535,1702.7337556596003,3403.4961922266307,16555.65294029058,1751.5403625153256,1378.4290132553785,297.69862759530474,1554.7293048624995,3373.7788409150435,16491.855842564444,1750.3975052002486,1372.9838885652186,292.92153555631717,1575.9398274825928,3372.2404325505518,16343.758708961135,1736.133375827394,1369.0115600718655,300.54385349297695,1383.9788284142228,3504.426923950554,16385.038803935906,1728.7747665443874,1380.3028845688348,293.8675074761906,1490.2597801517131,3366.211777077475,16325.663478034727,1742.8471675713388,1394.4991144354815,289.98607279744715
1480.0,3336.0,16488.0,1770.0,1327.0,321.0,1622.1330221664084,3212.7417992896026,16274.106355845364,1762.207257549791,1323.3770461463907,341.9869827446539,1551.369184676308,3480.1459603079948,16606.269938378173,1772.123080112767,1316.1035989386314,325.96698034318945,1489.7282034732689,3429.102917492721,16597.63002952019,1768.2853600479525,1329.1050611911373,315.8841880037968,1412.0373655491915,3357.7148598186313,16316.208154371527,1766.01224496088,1345.3408524938425,309.0749485190519,1439.292027732808,3137.9473868182263,16345.689393610426,1762.9748819625322,1323.7130198715797,325.5997315582432,1542.2794017644192,3492.23798977914,16508.45807388711,1765.6311111491284,1329.3176796553464,334.7822054892007,1505.4725491368226,3253.8766067175297,16552.10930205109,1766.8031158169717,1338.6285854385387,331.0768707170654,1487.682372116425,3324.0378227064753,16495.677843412,1750.7794097786382,1332.1732939167437,340.7002417242334,1395.2476480359046,3322.1388729796836,16460.77971666537,1766.913575660407,1326.717673794322,322.70145650164574,1551.1468673883655,3493.3122540776335,16466.6746561366,1771.5550614337553,1320.6505557044693,315.5648209906361,1405.7803233434165,3190.581225195937,16672.722474890736,1783.8351826507535,1323.2517202251152,327.8625621655473
1480.0,3288.0,16504.0,1745.0,1357.0,255.0,1452.0452490424773,3168.8920115030505,16462.174842654404,1732.6092586602927,1352.619756664527,272.0863310418955,1440.1216676790098,3028.9121263479383,16465.162496599914,1758.1178261794828,1358.2795103169506,251.03038451271297,1330.800307186747,3556.807582167001,16620.668159060562,1762.408726496049,1361.1018099827963,241.66081215268343,1384.851648242487,3058.4836924705687,16374.868629337168,1756.7000959064824,1355.8202969218476,256.40309143917784,1653.036851791751,3466.864348100459,16597.571605333305,1747.2989525092564,1363.09909552019,269.23236639999993,1426.6022107740764,3162.116634279213,16644.19159277895,1751.6218728055853,1348.6356570040575,244.55208513956455,1437.421384065349,3319.6031096132688,16448.039682080744,1732.8611674372034,1368.5977723005897,260.2272361118149,1644.9454034703135,3211.350898844086,16522.46394686614,1750.2449279142495,1341.78437853643,247.64152370928645,1385.7889645135338,3315.43821815074,16404.119607245135,1748.8989010165128,1360.1416036241906,248.93506042879906,1381.5165256085704,3128.929934184029,16617.69305549953,1745.5375636719737,1367.7836302951137,252.549229202488,1571.2400182249562,3293.7222668351965,16509.519964121333,1726.889759814953,1331.2343857598069,252.29694397189348
1472.0,3360.0,16592.0,1741.0,1366.0,264.0,1446.0203364501185,3574.406927417198,16700.7919225181,1731.974809296598,1367.0414031740133,264.28446104684645,1412.9525088165644,3513.7643447117475,16706.77717064038,1748.688943486947,1355.968432443387,262.2940977860544,1272.3478292534005,3457.044942908008,16487.06464751529,1730.9768196398281,1342.828093379298,246.22789167659772,1457.391989975733,3409.145355638388,16503.933120635098,1748.2344710508883,1365.6113902459538,272.5227565748032,1484.0877976891663,3210.0703823856857,16693.829990623486,1747.9893906011905,1366.008556522463,255.46107363873523,1288.454322682314,3428.341392406337,16699.591097859666,1745.513243422455,1352.6660309937033,275.1405898173155,1495.421935514286,3380.258809278365,16681.998929777514,1735.9228752974343,1374.5393151536957,260.64043037184024,1492.7505704109055,3407.396169550007,16601.582800524477,1745.8035367795705,1358.0374148698531,269.79888350510157,1502.7750452651765,3383.13193185524,16639.34420754216,1757.5911336859033,1365.383110634564,264.84539161225183,1633.0894708896165,3322.755946141245,16697.546285404645,1731.2597891054058,1357.3700503120685,264.6619267538307,1429.9990643144192,3441.967301931519,16461.279015561246,1741.3881366052335,1367.9774023534567,261.4123597435499
1472.0,3336.0,16448.0,1758.0,1372.0,301.0,1509.7909871222955,3345.0035603060096,16249.354190822516,1744.6667958549601,1351.9108036745847,297.84800374624825,1416.3977655837502,3313.861145324804,16460.877367488232,1756.8970514872344,1372.0741731230921,310.2709339516953,1514.9300529181082,3360.1102912551687,16399.050690596418,1746.8641216643728,1359.8587652102658,310.1610845752611,1647.8811648906958,3324.262566012887,16298.542884443765,1762.38568536798,1362.267687561378,298.85233079035027,1526.3573051149133,3449.365868692186,16485.421936203194,1749.818123315738,1373.4562582566182,296.00589219343533,1401.4473755786878,3196.3094218607275,16423.14696988334,1764.9882843432401,1374.572412097281,299.38208439840855,1721.7220143594168,3282.215553177152,16516.03903370093,1752.6330578481443,1373.314571173745,309.3611892191467,1576.7708784624158,3374.093959287189,16423.779152237636,1757.4446500058598,1376.3079149143814,288.829227151411,1627.5070548590215,3116.588985849053,16379.960589669714,1743.9937340343652,1377.8103877269248,306.76622637067453,1469.6905746793975,3156.7637086671793,16473.05460266365,1771.238304308559,1363.3917609288653,306.22924275948907,1461.8663456586926,3341.00213549625,16469.118212850026,1753.8205148053132,1366.992234542562,304.00580700720735
1476.0,3336.0,16552.0,1717.0,1367.0,292.0,1384.0018354985107,3394.535827335338,16551.399233277763,1720.176877859008,1360.0700512710139,289.160609938246,1707.3644629458288,3465.5041435084336,16642.870573123742,1702.7362577030215,1364.8317963602399,287.1509398102608,1395.6883273056892,3237.081612128294,16543.639249604872,1710.3655147868278,1374.9760155955587,290.0432819968335,1468.3133296250114,3214.1940755729784,16459.667007889908,1702.7840510650258,1357.014659538385,265.9108704341965,1475.1828463200582,3179.439916926388,16712.002524477393,1710.0963880979891,1361.1258836536588,302.0679281552694,1407.2274159188587,3469.1613657725943,16595.196208666697,1706.4903361904032,1361.5040611965617,309.98044534082777,1309.2646229399784,3259.266170616889,16667.174858746184,1717.4775773446959,1360.394708057888,295.17399866517286,1451.4039875386852,3405.6829372185666,16531.977055206233,1703.2193734469827,1359.306614049039,282.5017731882121,1484.0561771676053,3394.1574180012603,16749.229663698643,1715.8999947594282,1369.4414804645219,276.03452380873983,1577.6325299187565,3410.984515045711,16612.61700527036,1719.9552753423059,1370.307948451264,295.1305139038476,1373.6292630662035,3438.1660278809277,16588.175846690698,1707.376001647993,1358.5556146397516,290.629647156467
1460.0,3276.0,16460.0,1717.0,1347.0,231.0,1655.1780250455765,3290.1461272732213,16372.629583915004,1707.5170873587476,1343.6667463633491,242.1231530382087,1423.6724655210487,3344.7069001130963,16412.083692530257,1722.7269415249252,1336.767711946376,237.1930003737698,1434.6570038872442,3296.596381410749,16424.434571308862,1724.4177078350883,1345.9160796748274,222.2040100574148,1540.067084566723,3253.7783151516824,16450.68475207191,1700.5584205448317,1356.9030300406193,244.41495793694835,1474.2632208443354,3161.157711508934,16376.234524938827,1703.2284318063905,1344.4605479338506,244.9238408862959,1267.588650238406,3387.642697503197,16354.931326148773,1712.6561999127312,1354.2229949879184,239.27432470096318,1360.6137371838893,3135.788975317139,16390.299362445847,1727.574480846997,1338.1034605232126,233.07427074543082,1442.4696059325775,3153.2338694665036,16499.805568707878,1719.9826056391164,1343.3774082178072,237.12304259581904,1486.33269571748,3379.0744549527276,16534.58195926604,1714.306189576404,1330.6463898942427,220.61219169889642,1271.853399424121,3349.2930066292556,16571.93084447081,1723.8074189098284,1334.4118345334962,225.25145720175783,1319.5096905219898,3250.580627502179,16515.381215753296,1729.0871198909617,1341.6074040916185,209.16493452093977
1564.0,3336.0,16512.0,1742.0,1390.0,317.0,1686.050742871439,3361.358555970267,16554.345553204595,1750.0600147436628,1381.7371496201913,345.06591103131746,1520.460733764111,3312.3831740577075,16494.647140179608,1741.5649817104058,1389.2311641158833,320.2614449269576,1469.575756568742,3319.945662434248,16420.7013233941,1750.1452628461932,1393.3638186198789,324.73687315635647,1597.9793696888366,3557.0096787339476,16740.485934996585,1738.4694430077454,1396.3655976985501,308.34556713852135,1521.6174695652026,3324.4574564836917,16539.54807702708,1729.520321174931,1366.1433859907638,312.7005025752963,1654.0311640465525,3209.8162778912406,16477.12821237178,1747.4993965470526,1387.2186964470966,329.6745356969241,1389.5311292328943,3311.434060401357,16573.028491292633,1750.747180485379,1406.0342973648922,313.09482710440886,1502.963675962845,3446.9122370122373,16398.564948174724,1741.590598526187,1385.7205290065026,307.2893609067043,1529.894087413146,3267.877493266967,16452.49074076679,1762.643595194569,1382.479716653134,314.61758100103435,1687.0532243891291,3368.2348067930393,16428.16046654909,1764.443114471134,1412.4817094113778,306.102544650486,1555.8899925685844,3269.117604768665,16491.216181932443,1765.835043967277,1383.8607224673528,321.5923767763691
1488.0,3376.0,16476.0,1760.0,1336.0,282.0,1542.6705960851177,3366.5144612672466,16621.109483075197,1762.8745769502304,1335.7319840874975,295.6599032962503,1591.7446109620714,3480.652922701678,16513.422655220696,1740.4514949817762,1337.4876714164504,264.21154026513335,1277.6136543133998,3475.1500733988782,16483.663057888658,1745.8806010706458,1348.9251182206235,284.3360568110182,1593.2105714821496,3280.5532665966175,16405.59273723264,1780.996585164631,1335.033421823803,290.92664431587934,1342.1938555800477,3319.4040310095575,16509.215570759854,1762.0555268296125,1337.654258241657,306.9514340742489,1425.7372931971852,3343.1877748418033,16522.015712482433,1772.5512672525335,1338.2185533697675,274.5272326071258,1564.5151356492904,3273.7640722140286,16537.223994898584,1753.248707490179,1324.6009030502971,272.3285102386335,1459.2856351570467,3221.1365795320153,16518.232492267765,1744.9639988248653,1356.7774978621412,284.1703523887504,1499.5247301578174,3557.9120403046895,16526.12043705695,1755.2380479436529,1346.8683974011442,279.36795742971515,1523.9171171804262,3239.0781871099607,16560.277938562835,1758.3264064344723,1326.2409054929174,281.03882089487104,1569.9668064359182,3203.764591943482,16457.82585290141,1746.4526913039301,1342.3863058065474,274.1943061471242
1524.0,3348.0,16372.0,1734.0,1345.0,294.0,1433.6945816034722,3276.3347522124272,16514.375528812703,1738.8415158066125,1329.8383632298633,261.5768227019187,1523.6494960720531,3429.771810938121,16442.96024466169,1729.5303912892205,1354.943186920724,286.63777605291705,1477.4514151365568,3400.6438045733585,16588.45351430075,1740.3119432606259,1351.9237457195325,305.18845152712197,1486.5121280168314,3292.345603915458,16576.57434945189,1728.8857971740017,1344.541689233858,281.7136925951745,1620.1130517975796,3247.8922912748685,16407.931759226165,1743.3983556053113,1347.1497998802777,292.0656475663904,1422.2623605658898,3453.6824403185237,16276.345995587211,1722.0063305135818,1354.3787274413473,307.13705194047355,1522.2393404116265,3281.110630303184,16485.896418982244,1724.4468780855238,1335.3074898418192,311.93028041126854,1515.623036200212,3321.308683437226,16368.346011429825,1732.1881739554694,1356.9856782406782,286.4096082148187,1475.037349797749,3350.856657837907,16283.342040701018,1750.8404226219054,1352.799528583346,297.8908897823739,1531.1216457938324,3384.868576725492,16198.300200274209,1743.354426256554,1368.3253790741735,295.5737403891811,1462.579785283476,3391.517187075357,16383.375553977516,1732.8056678693608,1342.5703926042313,300.4956848884003
1484.0,3312.0,16440.0,1785.0,1371.0,269.0,1377.599391324484,3389.495824529933,16438.1189084756,1799.5927194475873,1368.116566382952,262.4787593313395,1610.5350997777114,3227.15220487763,16446.757824030545,1758.9224428844886,1379.6189898945245,259.90997935730087,1445.7273374504693,3330.5762896830224,16531.184283000395,1793.1026704800736,1384.7343302929542,266.2669782404128,1387.242470510276,3309.238956134726,16498.474174471503,1789.0983087508973,1372.0943048934755,269.79222356903955,1510.2651561804644,3207.1521520577594,16383.252073743812,1779.6916473912122,1361.4102177827008,252.23530764730907,1421.6321291000775,3199.429665039186,16317.819940814239,1798.0878067927747,1381.2689208687564,251.5660671535764,1444.3783186005269,3349.602951014683,16563.17551362011,1783.8992032721676,1377.8110103458405,262.7406122319973,1542.9782146542675,3403.634335324383,16422.208184974894,1773.4086090474555,1363.0508161441076,271.11724560478666,1463.1469930196727,3335.869089284844,16440.01081401527,1798.8778439622083,1374.7162027090778,269.4918902322857,1568.4061399536693,3212.908068956503,16340.553260316907,1779.3015855759998,1374.3403577128647,269.4344985497454,1409.3791152267577,3419.1862267446327,16363.990618793125,1791.8715286466486,1371.28293621931,269.0334306713077
1480.0,3392.0,16488.0,1702.0,1359.0,267.0,1505.633695514896,3399.6753537702293,16463.49872771715,1702.5181055730163,1358.1027377857565,245.24272230989595,1321.4693607253487,3481.1462788506997,16667.047974426157,1679.4889258514456,1346.236141617867,222.41353692401114,1318.0899046061502,3296.2564108322426,16641.180535665575,1705.8701554777965,1364.0126109665755,257.1420599073843,1449.685875212827,3290.201163176131,16434.01779785542,1690.1586734431799,1348.6835330742665,285.5996029237827,1415.6298789189657,3457.915318139921,16336.53973961754,1707.2340966346399,1360.8197164687933,258.2293905454089,1430.6175394729971,3563.1267006439516,16539.987100322018,1697.5692410660595,1349.6237002022774,249.81563083273693,1567.7835561493355,3328.0536611784396,16542.02649204252,1709.4899437515992,1362.5055558824681,261.2404750706755,1293.3198329216448,3307.0926487269944,16420.2031092564,1693.0217011776565,1362.5108500301085,276.45453331123156,1338.6393338122614,3423.917744011892,16422.14450957438,1705.163421667807,1357.1571352962237,273.35164185432717,1439.7190505178858,3477.246882110576,16425.24545454391,1705.2928255540949,1365.7197844683174,268.19550860092403,1564.1511465727488,3415.7502950200974,16423.645005337232,1697.338972722233,1346.5014015664594,254.68471546437507
1456.0,3340.0,16420.0,1719.0,1367.0,290.0,1388.5896392209509,3343.347066483448,16438.002520070928,1723.0725739153365,1351.205754544544,284.25588834077865,1412.310640108885,3299.3271891183904,16581.220885587038,1723.4721865590147,1356.325122854594,268.74876777465397,1502.0855724370654,3313.07526560069,16319.183362466803,1711.4633749982513,1375.4420401462544,289.72676799254174,1537.4328017175912,3258.141587023435,16495.754283439408,1705.8503575737573,1365.79941431371,296.72465506923277,1383.1938354221604,3471.0894931894513,16396.19091644184,1720.6113776140683,1357.135786586558,283.7700864773027,1218.8550797878038,3353.4721274461426,16384.116051373217,1708.6468967973574,1347.8455556659646,282.4660372939948,1397.177087239853,3309.7941338636842,16483.574580938803,1701.3962504611522,1359.00536452684,280.727552200571,1382.0972261966667,3276.256434654811,16517.51191543242,1707.1262611095583,1354.5071406254006,304.49997330214006,1206.950833152819,3396.9015799449585,16589.464063447056,1715.7922388561487,1377.562083726916,279.17707952144156,1553.5139327464017,3312.250555153638,16305.410169299934,1702.9707828335552,1364.759467123536,292.3730200853664,1371.7379264574768,3193.66075354254,16466.095315172934,1733.1359320987344,1365.497254433312,282.638320608355
1528.0,3340.0,16512.0,1741.0,1342.0,278.0,1398.5597400470142,3301.4990747299507,16621.407229438533,1734.0004944120044,1328.2548519691948,262.2358828054212,1472.3375566796867,3308.2382763991936,16506.223630421584,1747.5992426211799,1350.353933907945,283.9114446292242,1544.8492360171688,3495.239981126136,16298.254820537888,1743.4414074861984,1334.5931401375724,287.40951152748903,1571.8796681007868,3317.275369433308,16450.621935694184,1720.34844379286,1363.8769813847316,264.9098246111052,1465.7595270080392,3341.5026135489484,16470.61087689626,1758.914271871586,1337.1864920881633,286.3421201450818,1634.7455819941108,3379.398210230293,16569.871650865127,1753.6452137758968,1350.661501939713,269.993343095218,1661.5094519753814,3317.9515068617698,16491.138885861612,1742.3117239991948,1358.7603107712991,273.9230426235304,1447.919879381861,3250.6468965217728,16547.86192073871,1748.4260705828476,1327.870314800062,287.88961397027725,1612.8593799953549,3216.3994706439894,16528.891780096146,1729.9349474097828,1351.4964725206535,281.715526242216,1559.0005766226302,3455.831668050236,16698.98113987049,1743.0882942387886,1338.7710029931286,274.85088491976506,1500.129493354294,3301.0381729798014,16548.47427907731,1765.1098378912181,1336.4024428112389,294.94086978654366
1488.0,3328.0,16408.0,1747.0,1377.0,310.0,1485.5916028433815,3357.3677968421607,16601.996742075782,1751.9166121125909,1365.6854445311828,297.25862338695174,1625.1696001801508,3425.2905984173053,16415.046037860637,1743.9853820126928,1383.4669386061735,303.0000313174778,1532.5374866485765,3428.1475283055847,16307.443049874311,1743.1565785630232,1387.6689277749003,292.36819470394573,1669.5101791831364,3414.6046554532572,16432.78563694173,1754.2687708228352,1384.6721743733956,316.291111679856,1498.0582900308561,3171.3605846777896,16340.170590098594,1757.2999554698167,1355.4418327215317,318.87456586313465,1430.9606357318578,3409.65304151062,16529.38898139956,1751.2868110643328,1360.7868566157285,307.68425015990516,1715.690243181078,3229.977284507515,16438.283444932058,1753.6936604184855,1378.98478111155,305.265938743527,1597.4222263904956,3147.133236616613,16375.191836806292,1754.3738746439483,1373.7844404098282,315.9352094114517,1517.4076193390335,3492.3349542526607,16426.10784560885,1748.8767180272926,1370.7635537788906,314.64790055391813,1557.379517651536,3308.787654740722,16345.526096883465,1756.8704996296374,1376.0029739694553,316.0320841441957,1551.4189314990572,3348.8621216206775,16314.767139532845,1736.0360767644438,1369.990513297832,316.82718407476034
1456.0,3380.0,16360.0,1809.0,1394.0,265.0,1530.101414294589,3375.280744766092,16343.991628725642,1824.962866878074,1383.1046389986473,270.3758597981117,1602.0989018600965,3389.5194355150047,16495.123312655804,1816.5076791925565,1388.7508178972228,263.82992192075983,1251.548044544492,3372.241240915064,16280.363629091331,1812.3951379723756,1401.3301850449388,264.43770860654973,1533.5496580628721,3244.9684132864327,16294.883264334596,1802.9959638037665,1390.9025727779588,264.9490683417874,1503.7023540460527,3434.4295763760388,16425.696365094755,1801.0268286447044,1395.6876481967513,262.16181962444085,1575.3416048594877,3282.8973385260606,16335.510671247972,1798.5098824591903,1372.577813358053,276.71433196849824,1486.1112617322426,3200.780172697499,16219.307617379303,1812.9132757558957,1385.6124823421894,280.56247319719955,1333.8904747692684,3463.786094574684,16479.521135060248,1832.297548177435,1419.4416183479889,242.68850786562035,1492.0579117560653,3436.110707341981,16293.022808975162,1802.616658710404,1407.365623887789,257.7287795584818,1223.0801091805379,3394.8110335189876,16475.658476971246,1826.4097665473712,1412.0814578339084,269.953174077342,1456.6675246544485,3413.3924749189237,16255.031528313182,1822.7802019079884,1397.2841473295725,267.68772140215606
1472.0,3228.0,16460.0,1835.0,1451.0,335.0,1437.081123311158,3219.8289974210456,16321.961908031868,1836.649879436031,1453.0194551540121,334.6129775058161,1656.1964549966426,3312.654579147382,16583.24170477593,1841.0675344939032,1449.813129969886,305.6956739830146,1518.4900877618288,3105.6734955745546,16645.739988347468,1847.4252728059805,1434.7080140416635,331.78088986396267,1479.5189656445752,3372.055935854327,16550.67720777658,1826.8240119818504,1451.5467600649745,323.4941104302983,1449.1059325996557,3164.671234738385,16457.251640845574,1845.1359767321335,1462.23890781105,335.65357124911446,1447.2521405667776,3231.5714459649807,16376.427425041566,1846.3834389940253,1467.8892135158253,335.85675702865404,1517.9601689062388,3110.0255585030836,16449.06347981128,1836.4770225689804,1455.757396271031,336.5610732769976,1425.0635758818823,3282.057576801186,16474.18206439539,1845.2856325721762,1458.4574637431383,331.59311694689353,1550.5977143136674,2989.109415711876,16509.192826681243,1827.8638208051686,1445.2184011719617,340.4261291240001,1580.9571065637986,3306.320775807784,16370.69790583633,1827.4473350161604,1463.204952241904,344.4447042884957,1327.4079231114556,3260.0894289685466,16327.912058247846,1845.6976214504457,1447.0842409255067,332.0334171057974
1488.0,3204.0,16400.0,1982.0,1521.0,268.0,1558.5429619849058,3259.0983987023965,16319.78704548539,1970.513720780394,1511.055630766086,261.44521690797916,1537.289042899505,3232.8028035796383,16354.944953369242,1988.754774345196,1525.3033695288477,265.8791634195914,1604.2815479015494,3270.2744573528303,16354.558254359366,1978.2339719444437,1533.6372881698594,263.4655675992173,1351.083285786055,3170.11981091569,16492.277125463115,1979.7860864143342,1514.4714604729395,274.378823520785,1498.0580046232099,3206.6497872733407,16234.915070234774,1973.5204391066284,1507.515331745411,275.6242910040647,1434.460088512075,3252.4841973641314,16318.148347690963,1993.6538387249934,1525.9519677589476,264.27687442089905,1517.020914263173,3347.816873187646,16498.87261712534,1981.033806111032,1526.9481904532718,266.2617074132843,1395.8917915079671,3391.057565005402,16315.579138466479,1992.694709853401,1525.5910285188731,273.5232705105803,1554.600060010705,3153.5940586753513,16412.96330698651,1977.0639559291992,1519.0159018567879,265.3038556280216,1401.7817536171472,3183.6191149409665,16289.149449329314,1989.8268911809828,1512.2786800796923,262.4739723854416,1397.3164409646579,3258.255038051962,16434.994069283795,1981.2341761078083,1514.9080280651274,272.1824879042154
1500.0,3296.0,16476.0,1667.0,1265.0,236.0,1609.645643970417,3281.401328394121,16511.08889792266,1678.846157005696,1261.93635213685,235.55743441950332,1477.4397124053005,3191.486201265499,16683.47466306421,1655.6231824827414,1278.293980167369,236.7133335257225,1341.2654805538093,3354.932421250331,16520.25979428101,1651.3383730772578,1252.0331613465162,226.77814588870524,1456.1057815999166,3321.270777356926,16341.284647529572,1673.044579966445,1261.2128830155284,254.2245308201844,1483.147473740814,3165.7530147747425,16404.99509099807,1670.3349644205773,1256.906703959769,236.19218815991997,1488.1148045730822,3312.432728318131,16455.169791002645,1679.0188202871498,1269.1198744053268,253.65216156406944,1334.1628784439793,3169.663171689987,16541.00964752722,1678.7998821207211,1276.3268566465326,231.52891951755242,1601.636010764543,3275.212628457751,16521.941841806027,1672.5011928256247,1281.9586342499456,241.02592374613482,1693.8010937529207,3201.0227884953315,16697.53500569617,1650.6423758832434,1256.6783670770874,238.14211521673062,1433.7609804086578,3310.768460808639,16615.792266731773,1669.1571068490043,1276.2877763915847,236.37996213501046,1408.637642218856,3519.2460336961403,16552.938727387897,1684.5403302754844,1250.5515159589086,242.6762675141306
1540.0,3452.0,16480.0,1681.0,1332.0,262.0,1479.358099320873,3366.6930855113465,16545.506472542544,1670.9661766617685,1338.5020659872448,256.9368831642218,1667.0762465656233,3301.427736548559,16514.316973445006,1676.2406519484346,1328.6481848164638,274.37956629443465,1515.4537879451432,3475.2502146576808,16473.363883880764,1687.4885624528235,1346.034141382818,259.2920141423713,1479.6347771206113,3339.0836036895607,16507.13795687188,1668.8327789970067,1320.649488072349,259.12626086766846,1524.4258061946261,3246.2196703114487,16549.698997503587,1681.278359183619,1329.3001588476766,274.59086464146617,1767.0921172391718,3402.342835118908,16410.397167376992,1689.127466171589,1333.5963705494974,266.303796292841,1582.5855407723955,3454.9934706277595,16382.554292748822,1701.7387606461068,1331.43579372671,252.22117806345793,1383.6816683231393,3453.4018646276363,16464.608835142146,1660.3075437587283,1306.8841936569572,256.31783152122455,1792.2079994535256,3389.923676025655,16429.25628567105,1686.120124934766,1335.1191819667656,259.53371661998005,1688.6178955360188,3467.6989209501044,16458.411969634133,1696.811236438646,1340.2174357845026,264.7241669341783,1483.2883742203794,3440.043702640547,16428.21603103181,1679.1715519031231,1329.289670084036,253.45599470876002
1468.0,3404.0,16504.0,1753.0,1362.0,266.0,1582.200217541484,3545.938269953237,16418.26985379332,1750.4913416014545,1359.893797329567,262.0870610119742,1507.4740004787789,3364.919277077633,16431.67020115272,1759.2510461030067,1358.4861229200394,275.25860325294957,1394.5971410542238,3414.0789720560592,16464.027054354552,1766.89692556044,1360.1145431650507,273.3473960340809,1522.2076771008715,3283.706871270662,16637.193996341404,1740.4645066490918,1366.5661710872812,280.87973390262755,1394.3036592909689,3498.258296260713,16626.402482533744,1763.175434913825,1346.36054796961,286.4896432297108,1524.527430865565,3216.117293947599,16623.166342106684,1748.610251806999,1367.1456812194547,274.89409550601545,1373.2331347748404,3516.412506224305,16420.06019895923,1752.8634064749347,1346.3593364523822,274.8077926067295,1538.0973546973546,3344.0356085704257,16672.468797803827,1751.8848111041623,1385.7242031276946,264.18562557562103,1458.8418780563309,3283.3170905885504,16675.30112344473,1744.8801779911037,1356.0176535952698,266.45948508441705,1589.5401336608224,3422.5328745818333,16365.833792706835,1753.6816600587656,1365.2303748116929,269.7333746431365,1481.3667913668937,3472.0515497055794,16471.239894796192,1759.1803124420887,1349.5611552062094,256.2302619409694
1464.0,3296.0,16456.0,1697.0,1321.0,261.0,1389.5278364163253,3038.9309653945165,16469.88214119168,1685.1551254169976,1309.5534617874278,274.9991498806545,1353.9299160475482,3328.8196893884206,16450.173117322924,1699.9866089458528,1308.075161024599,256.11661417880833,1402.9710632568806,3231.0290135335167,16407.172941000616,1704.62811680374,1324.107582835606,256.11710801666396,1374.5628274385617,3416.1534596465913,16492.7163013831,1695.9503769240584,1304.9429178837086,255.13437139605838,1496.865164684884,3410.8157561451712,16288.336736641333,1711.8808183403103,1318.7911177568767,274.4666763313999,1523.606887919511,3452.414224774522,16618.20253881731,1694.7269216551513,1310.1349907861131,236.36033443166662,1361.7622491702382,3361.377990171573,16631.90725280953,1698.3526893169164,1325.1644970247526,243.94374079607783,1448.6877130845965,3375.173688321162,16637.56765623204,1698.552389435726,1318.3784066621586,263.86617743642046,1720.423709111215,3458.6917719790877,16544.545368067324,1687.2112130599637,1331.8218468063883,247.06508631891765,1486.5666508977897,3332.5071460487843,16317.452162557875,1709.8963182535858,1329.5813149060239,254.78017548299374,1535.4141219443184,3317.469229126382,16606.65498970557,1687.1312621051084,1337.9845333998446,252.1756128907503
1456.0,3372.0,16516.0,1707.0,1360.0,287.0,1489.9923245264615,3354.295690599484,16523.990876194955,1693.292956522621,1345.0282616907182,282.051364268475,1628.8829582590972,3133.9517189083617,16274.000246800935,1701.0493552794574,1347.5429555407716,283.40769436984596,1427.5021466212634,3294.002787298612,16587.03213659792,1710.5850550902153,1363.2113347924521,286.5916639904069,1531.016809168045,3519.7836082770636,16503.182352647163,1711.7513358662263,1362.7683189170914,286.0270711742701,1514.9915476432623,3384.675795372886,16556.549565356756,1710.3891837925403,1361.591200300957,293.6096391662638,1301.1170505351329,3328.4366598931256,16641.557992198334,1712.124958487721,1356.7891504755976,278.67849867724016,1402.7535807392844,3163.968011054188,16536.344516527748,1724.1669300285223,1340.2620795028315,294.8318252111473,1624.146067425699,3295.5524288190645,16370.376375869133,1716.6072149864578,1369.511700714112,287.2573024024767,1556.019227014505,3402.63033387769,16553.855659399975,1731.7324542108258,1357.5421251949413,287.0544893474555,1442.7731293188933,3406.972321954037,16464.402032262115,1710.9153655887394,1357.1010291411942,281.2118976862742,1604.5696324949138,3517.161191585995,16429.39771448005,1714.619935070207,1336.825100651047,259.7199353452836
1536.0,3376.0,16516.0,1703.0,1326.0,282.0,1481.264228176982,3302.2511800928637,16682.13277687174,1711.3206718841516,1336.082557814993,268.5731579632492,1468.1345716091228,3265.2579694957844,16724.1486282799,1684.4018246801286,1330.2979697859653,288.84507133388644,1624.628090729194,3377.424326260301,16380.846324688624,1702.997657473353,1309.5367534692195,290.4533339984959,1650.866787700645,3425.425955898086,16589.907811611203,1710.3373645550732,1343.2220796771726,292.57466161854916,1688.4551330161762,3367.216471091336,16483.291030047792,1712.5510095692205,1324.7838157016251,299.31423359313953,1609.7492473700088,3370.575866409735,16435.058923364086,1722.9778800533336,1329.2813761317063,272.88890149023763,1312.608550495263,3433.901423938858,16447.911594479734,1706.2701226561883,1323.8794437137158,302.5198883292302,1486.3206764225736,3463.0965978015333,16350.882453128503,1717.276499493996,1303.3616505729703,304.5448843097036,1410.5359900016845,3382.3140403446832,16511.653717228903,1711.9550557449827,1329.4291003598655,270.8428041391852,1451.1954354038496,3361.3793049955443,16384.943573508335,1710.5074606515639,1325.8381959208864,292.1552719550794,1536.0554841089472,3201.0063098220494,16573.34198725549,1693.535950688956,1339.5312488433124,282.4875742912503
1476.0,3300.0,16400.0,1756.0,1364.0,280.0,1365.3138267932682,3213.1056501129465,16442.668665569374,1744.0804835079327,1370.077187860715,289.1003004741838,1525.1166608114158,3278.379563776041,16506.837045127457,1742.8283672888006,1367.2017071076193,275.08371534716076,1487.9203721433903,3404.97468633084,16325.009995084465,1765.3988537225018,1375.91238785816,275.1433152007454,1351.0409322549815,3065.890397973032,16499.782364602772,1773.7159567410367,1377.524322338656,273.8949066058977,1479.707588025111,3313.704039232848,16503.936774883965,1752.2932503269033,1363.3977719918414,287.93436978903924,1577.5433514406368,3362.1132013606066,16491.892302018143,1758.0538820242723,1368.2826226497737,266.47171848515825,1571.7862021149272,3247.0120123015986,16313.455269666902,1764.8827598435773,1361.513741389993,293.2936791083515,1390.70537492575,3198.1165531817746,16418.422358034582,1767.6014400865288,1361.5251610580904,268.0274711405043,1569.4620363139038,3266.947112508386,16433.5308035421,1764.512205278312,1374.6805789118348,284.45493900103725,1541.1038274199043,3348.1249166001858,16317.142651061593,1756.6202519559135,1361.9108210363086,259.3843657610761,1413.033490097401,3067.795125200867,16368.037364926657,1757.6670776960912,1379.5376588965878,288.18984514156784
1508.0,3344.0,16460.0,1709.0,1329.0,258.0,1525.7779377433792,3393.7200258480607,16396.724468665045,1711.0234341613018,1321.0525640020571,249.58713522229527,1569.1130230819256,3664.685607586094,16258.095504467175,1696.7615585106737,1333.88337391807,257.0238361658457,1469.8635068447923,3438.3287327935245,16371.374493140682,1701.0370133290453,1343.4985782247925,259.3852190304808,1334.4551601883636,3458.4213504294244,16461.96716083328,1708.488855987564,1336.6574241333512,259.5001935174407,1449.39659983274,3424.9059316354305,16409.93731070731,1705.5691281444958,1325.8024429612635,252.52700503544014,1408.225052412404,3277.6844537626966,16497.99868237738,1700.7446395640375,1350.231770928054,254.60180387722642,1535.8651372684888,3463.644389704645,16523.741147529723,1718.3085734154047,1320.7542911776723,262.60982939768564,1403.7844105808915,3314.1643120897916,16502.156401976856,1713.3481194286587,1323.9832316314396,253.12606105165239,1554.9230496565904,3387.1507671058525,16450.853183886375,1706.9940716759743,1321.5298243752964,275.4155490302448,1477.44382355436,3351.3332144626547,16472.19666188274,1701.077054946032,1333.2793413833806,278.28102990891585,1576.441786647231,3318.862754529726,16603.77869439368,1707.1662752998604,1315.786492417481,254.05308284457362
1508.0,3332.0,16420.0,1729.0,1357.0,262.0,1586.2939074415024,3253.325145339073,16511.9166934644,1738.628954636303,1366.3708591589611,274.7626384041855,1556.9741192088916,3311.8726187325515,16440.1077148511,1715.0311506461971,1370.16299701276,267.98629926244826,1425.0354651754683,3197.364871403202,16443.376388610937,1727.0639039654338,1370.2079318006415,254.84462305334114,1455.6711396291157,3570.0015459420974,16466.79402040908,1718.5727340353294,1370.260098598862,250.74713850834138,1548.5433197696698,3210.2610324031048,16568.71095646107,1726.5870396692585,1359.4388313554527,254.3891417519697,1690.1348211411932,3304.35448693753,16652.456007863442,1731.6343922303627,1362.0128415306078,264.585241089239,1481.6076343029633,3354.849057509419,16368.191506637391,1736.9356036867302,1375.9470608878594,258.7425067297193,1524.1120633825872,3195.3604453232074,16602.209907643104,1745.9616107191662,1362.368842978763,259.057823759839,1410.7551930102452,3522.141109050396,16431.95306043473,1730.6571896513447,1353.6524751207055,257.7458539078926,1299.3209386148158,3204.430081303745,16398.303976299576,1711.2840698904968,1350.537207344118,263.0766178540726,1464.3018731699722,3494.8546034626206,16391.309201403135,1712.3379110333979,1362.7827802406864,252.7285637687942
1556.0,3316.0,16452.0,1740.0,1352.0,286.0,1364.5507522849925,3442.3323698823274,16486.457757377306,1721.6143092909117,1357.8334405214769,273.72698907665966,1636.8204278219594,3441.498654879067,16397.286368501158,1736.0516618562058,1360.7441049120957,267.88650550339645,1572.6095140610348,3357.1015944696287,16611.336382609137,1730.9079836907433,1345.0258849347204,282.2813197367124,1596.9616495977066,3373.8355968703972,16377.766106403831,1728.668692504949,1349.3674926947951,281.4978803812606,1559.384511896471,3279.8983958750923,16347.080640866396,1742.141300009709,1342.0038890377552,283.5229936863324,1664.4218672038498,3180.4427528234037,16377.488207521359,1740.8461607770635,1334.4730706972314,285.6678225226021,1733.2012983869795,3283.9982924518786,16428.738462895784,1750.3499260570306,1351.7102129873956,274.69540069085525,1498.4287115085729,3286.727437911602,16414.214919242586,1732.525135886401,1349.4616600871063,279.3165487437281,1773.8886329315048,3374.3600110289794,16390.41891104024,1754.5512414717946,1351.1267507160596,293.3170054091951,1322.0602532989158,3306.659467675264,16614.26757875742,1732.6520398927346,1345.201766224323,294.83103887164765,1672.1077095085395,3239.0757548172996,16487.419160785426,1729.7716481361624,1359.6179533042505,300.53405290193814
1508.0,3332.0,16520.0,1715.0,1374.0,293.0,1650.2098144598694,3457.420806068339,16714.034782363167,1732.1190966935512,1380.2301560178453,298.9437488226298,1524.7781382637372,3208.871359219794,16556.29071994046,1727.6141655581353,1351.187152036008,302.38593397022345,1429.1095609113781,3120.647382023089,16542.457350470762,1717.9490669579034,1380.472562439262,277.47127873294056,1183.093179581872,3471.8203456017336,16460.424985778805,1710.595243632337,1383.8561102130104,287.14311129110393,1351.1587018903506,3299.0555954882207,16602.788424480597,1723.877766592373,1365.1727067050845,285.4108485111714,1378.969277516784,3347.2865857355523,16325.7787536575,1725.2658668246054,1379.489439681009,287.7062291429619,1497.9593406127299,3340.2103698669544,16479.024579123063,1700.519909186361,1369.9791643506453,306.07402671016365,1475.6397591665573,3311.026531790239,16671.44346623364,1725.6663196095626,1380.4420578997863,289.87030056194135,1526.3029028746028,3420.7261836496705,16626.874364936724,1712.524194617681,1364.1605370260597,274.90832050517747,1359.5559308076888,3247.41068741239,16634.532192526083,1728.5376252002254,1378.0697793484937,298.75207244687726,1317.379784916034,3305.425983557284,16738.270951895345,1717.1697790750009,1365.1787477684293,303.0477205373101
1556.0,3348.0,16440.0,1711.0,1356.0,272.0,1546.4316160462713,3338.7633714202116,16449.447422295685,1730.1613583372546,1349.6918364900248,273.4269577982808,1643.5640404735123,3356.8809372109663,16410.552552912737,1714.9396895740924,1351.6892357004376,276.5070289053058,1643.5438160830004,3466.856631078787,16255.229833774794,1715.0127625133314,1338.8999800385282,283.94811642687273,1580.0282687763902,3336.7041812698417,16448.64377936473,1709.4738715076542,1355.1113037208152,285.707645484303,1497.4856851367808,3328.3232333755864,16419.449253602423,1714.0305903116348,1364.6690657433542,277.25616816894984,1734.1060931536365,3321.006312561655,16393.13607955561,1727.968427487727,1340.2988991222212,271.9837200118671,1665.2328233368112,3436.8317390620164,16473.0352917103,1711.3569499218515,1361.6510350620729,282.8163151019968,1883.5676607301953,3444.507502229911,16449.497952388723,1717.412938206242,1323.048841486404,271.60255092105746,1655.82639485338,3314.0937865707983,16352.393763390335,1708.920306156988,1353.147110232107,266.18858605342757,1534.961739641909,3235.659203440313,16451.73542502762,1723.314795545404,1345.949154309257,279.63946850002594,1594.8433673341171,3392.1216512282604,16516.796202480928,1707.02692491145,1349.1508101042878,269.6021941609156
1536.0,3276.0,16424.0,1729.0,1368.0,278.0,1688.3442713350078,3257.7853541686827,16491.141853262594,1721.22291255782,1358.6202581248444,278.53332570148115,1450.3557348502131,3414.18530626812,16580.936504997,1738.3137235726442,1368.5657315935005,282.9859203317618,1646.2750160656583,3197.668081770001,16386.29766471105,1728.8923927614644,1375.7248816173146,274.28398200768277,1493.40566100305,3304.886052950625,16201.855126921097,1728.4950469212401,1357.3704378230316,272.05295563665237,1587.9698680763854,3418.9550840420943,16360.813988177004,1710.000516663116,1361.035710370101,275.9957902767192,1500.3094244649044,3292.591290032541,16440.757230361174,1728.0443109831747,1365.4447672632566,290.6494133672044,1394.4629124578112,3255.3151673642315,16368.645771035272,1725.9622122726341,1376.6747957546272,278.3941032682823,1437.790026550743,3473.2959372924265,16416.730890713177,1720.210879114115,1361.6623719106167,271.7410775595314,1549.8191699499962,3202.9945270535186,16486.827593952567,1723.5932855210112,1355.6692300241018,278.7144508501568,1636.615127940401,3190.9004647161405,16455.415156761945,1743.5217845270636,1360.3598153516118,276.04831465856256,1710.368759619085,3138.0646813229014,16675.35428446208,1719.5228125056065,1362.5361194107215,263.27166541597705
1528.0,3344.0,16524.0,1733.0,1382.0,298.0,1344.2357763010978,3342.380742421814,16628.57119407603,1730.911605935406,1399.3916734320107,321.3752608368347,1556.5879488395926,3483.7892073943804,16486.21706878739,1745.2160434845478,1375.7044148783607,285.43257469917125,1456.0262540039073,3297.511952788731,16518.199418464355,1734.4827249349303,1378.9287612674912,304.1777621014811,1460.7360547181272,3421.5335635013384,16549.844864814113,1748.6609971722128,1377.138783864239,284.71272756957126,1431.587971779419,3174.7452751481455,16558.333143214695,1738.575613036666,1387.3843262938294,286.19131065359426,1352.790960885698,3302.0840117274447,16477.839681403188,1727.7569074122957,1393.5044763987833,274.21299911312354,1451.8039247812899,3442.905712339295,16601.722999421745,1729.31689364542,1365.3241902946004,304.73209849949075,1504.227530685266,3439.6068544769564,16592.683269531815,1734.3010814218514,1391.8601461701335,299.3939390205627,1392.532789331726,3316.1243500685828,16536.749725781305,1737.4070232796662,1381.4781553945325,291.6420567925797,1606.0703638500277,3118.195463627842,16462.199995366504,1740.5801204268384,1387.733549148609,282.87284446887236,1318.9947598858303,3333.33830271052,16564.835183563875,1734.5044901282038,1383.6171157756248,308.2515322226818
1580.0,3292.0,16492.0,1774.0,1368.0,299.0,1388.2871325582535,3405.262831227592,16603.79040626144,1786.0890858134271,1366.9271048930723,291.1732286071145,1455.7535541213438,3234.022874527089,16609.16381429485,1779.2418004815756,1382.8741175174712,288.4292762129747,1511.193617534909,3461.754030923122,16388.518615789933,1772.2797108001764,1379.1100548977204,309.4741715361123,1582.1241805113502,3311.0915020615817,16673.079390669285,1774.0305453731876,1379.515754843012,304.1322556490622,1320.843786532135,3524.8161298692007,16347.587450318731,1791.5902335231472,1376.8273050079113,280.0721728311378,1502.5019582235084,3313.2675508683037,16436.12680887367,1776.450525052769,1370.742505896337,283.8077304069186,1513.583526976088,3371.108951464333,16354.34027825063,1765.774355564207,1358.8702098271997,311.5731356963147,1717.774715327283,3229.5263408046753,16640.674767042234,1763.6741286526726,1362.860317613606,300.64111282295585,1446.7902731566583,3347.829498177455,16589.69978235108,1774.9044206248584,1371.1613409725367,302.0150439541081,1630.2371833064622,3280.1877172773347,16601.940316018845,1781.0742310046091,1381.5901990294744,288.7618954864033,1617.5781150559874,3280.9637596230955,16439.90040492986,1778.8237791390732,1359.2771093491133,290.1620104052116
1528.0,3308.0,16516.0,1737.0,1312.0,254.0,1508.6809631860792,3320.329906817998,16468.790581883713,1726.2308310128865,1324.5845614015536,261.8320346289321,1519.1227546809732,3207.6778320870244,16484.859087052082,1728.07229783634,1300.6400121382467,242.7896454659892,1692.2058911176453,3272.831035916327,16297.168256953571,1720.687971934653,1296.1587008430643,255.85147074728184,1634.6597130740922,3440.8765389931896,16588.443774973082,1746.192321652058,1310.687698713548,264.59739725387215,1427.5374848769604,3278.0408762166558,16402.146317812727,1731.3560334109486,1325.6827268407,253.6121501256823,1491.5487710759787,3227.803233828178,16351.7281089745,1757.840615521594,1319.7624226002995,249.2332398125867,1294.3925426836854,3191.305203723604,16622.8207499713,1741.4709872451642,1321.0190611383136,248.91155911599935,1645.130004192393,3283.2881557412416,16522.448063409032,1749.3220767297792,1317.0314334425038,256.21885610240633,1592.0099170819867,3357.6627289300227,16524.064899840218,1735.3616349952479,1325.8069998955696,261.03677415474294,1489.2185184097307,3415.9658430517534,16580.89717388769,1746.2217828441128,1315.4938247436326,257.3372460525358,1494.414052312637,3462.547203692987,16585.309658472765,1730.9710177085228,1318.8773990313932,245.15501843896664
1480.0,3372.0,16436.0,1760.0,1367.0,289.0,1639.4395877687964,3397.2393574964153,16379.383532026633,1763.920117448862,1381.7852227174185,296.9178491933647,1429.8495777199241,3535.597687736955,16414.34466263242,1746.8980980098918,1362.3995965837958,299.36164395038105,1463.7347187378136,3461.0978100705984,16483.105900600767,1761.8488674816072,1396.9773231063496,280.86109611219064,1458.9637032848452,3375.0519759266804,16451.11152449449,1752.7071293348681,1360.5847506011235,285.5463464005523,1422.1269886422876,3356.0544198384296,16325.607285325947,1750.1804131763286,1357.4854823503101,279.4475991046312,1494.804915789595,3195.999871966178,16415.59315291308,1758.3574339545144,1363.9103172006992,277.5280328994242,1457.2029471402807,3304.0470731181904,16473.45428807056,1763.4098481698145,1366.3776244025444,296.5697356888986,1244.667982648959,3151.7567760699285,16590.013930052803,1752.8071722302584,1367.547566508346,285.8234971102477,1594.1621023850528,3498.2115406887306,16387.352953221623,1752.0938364628412,1361.584136780338,289.1669848442359,1531.37755111029,3277.915341448609,16501.129883264886,1756.8010995004133,1370.0106502254623,293.77394988248653,1471.4430202772917,3431.55159806325,16456.83982698762,1762.4093094001387,1388.9743993717598,296.44891748663804
1568.0,3304.0,16392.0,1783.0,1357.0,272.0,1584.3138195078914,3271.8921020161683,16432.396956103436,1778.7500872855958,1346.8716973638593,264.25155524717763,1709.1169378893915,3446.1393027826657,16420.67145235515,1804.53188627671,1363.9572753964358,272.1317517155931,1600.4066075238084,3358.4544469835955,16339.2862374956,1782.2522969765405,1347.7155184889157,282.5496552670361,1796.4761412934445,3331.3784780839683,16416.465348114038,1782.5705116010884,1357.8819351911197,281.93883264592785,1369.5413898227969,3393.39109883086,16483.75536778992,1773.4584781316657,1350.4376215224875,281.8278573667239,1539.3824691113505,3166.9626395779533,16326.489834978638,1789.9068138189655,1352.371930910949,259.44706325939677,1615.9082996509019,3214.044442738985,16436.652585792097,1806.1751403942078,1339.9758868966946,258.9523518822872,1645.7902989575277,3141.2525146415,16385.490400549836,1804.8870293061514,1360.5451642869189,271.04720664969915,1542.5422388408965,3386.7584062014575,16366.820543010615,1775.8500608348807,1368.1890972606543,252.41816930565972,1555.9111005998243,3316.260437421945,16400.658573208184,1797.457564458388,1374.3523169601867,273.3197579928848,1595.682010430389,3279.5479231915456,16216.409483913596,1780.4632304523896,1343.617842230043,264.8937402966331
1488.0,3340.0,16512.0,1744.0,1340.0,253.0,1422.647356068439,3499.124761963612,16480.833404686353,1744.573967549195,1345.5444397028764,245.1509044312485,1402.9838094822333,3355.976147886578,16389.462878378054,1732.4196572166725,1328.0158351109562,244.42576288769007,1374.9915869816343,3506.9927237381935,16722.498117427756,1725.167583421995,1345.070225912231,259.99644310224693,1490.8306442891287,3342.19760049284,16628.202360240888,1734.9295357212877,1332.091444425535,248.7430922360313,1496.2684149063211,3178.654492884119,16538.324830290887,1736.5037538611828,1342.361158510792,260.46727027230287,1274.4265500911802,3353.9097743426732,16468.347308116667,1742.1231195165485,1339.2869068592872,267.1353171026978,1478.0863902504395,3351.311365418817,16526.341602127068,1735.3535428023763,1342.8451254507156,257.1613680086859,1410.8072717893742,3226.601656095122,16539.72916764777,1734.9546141591668,1340.9179977035933,248.917760026829,1580.9629084307842,3289.831122958932,16530.37771658361,1742.9840983063627,1342.2384121179416,253.55232424723815,1448.1154869863885,3346.7741622533604,16429.6938360283,1748.4739140237805,1340.5411997046601,275.46764406360904,1397.1610650492348,3392.6451906055786,16561.520603906247,1743.3991399788665,1350.729785564308,259.26107139427296
1564.0,3332.0,16432.0,1795.0,1422.0,281.0,1416.782274511277,3322.1784072873306,16363.789034903486,1810.3829616767612,1434.661819748746,303.9541915143954,1571.9072875089646,3237.606230457421,16472.021546699158,1782.9094328576382,1403.8615031386043,297.8015895121463,1571.8698009684501,3289.1985227971168,16392.074861282556,1795.1805909736104,1425.3722596111627,279.71453606017303,1662.3610716737994,3219.3995951212582,16515.841957828958,1797.168205101518,1413.8958375824084,293.73151888756706,1616.076865541643,3296.6479050965777,16506.24651255938,1796.21659713169,1424.3177938122537,280.2838602428927,1607.5998456408806,3330.1389549943297,16249.405236036273,1795.3143677966707,1442.7052300034563,287.75753608923134,1528.4210089582507,3319.2566234232477,16382.431266315336,1780.2760764144691,1420.18445630612,282.2868908223028,1597.2481771410314,3297.5704757546414,16446.13769013858,1795.1489152473441,1415.1060547225209,262.540276381278,1505.3567356353876,3252.68093304666,16575.504489237752,1793.6438308663994,1434.2232498993524,282.7010618951166,1452.3046896594701,3228.2748507503456,16452.359763851004,1806.4290688343742,1423.8498596546772,271.1201027491229,1641.8173481995568,3599.254743563153,16488.279381900735,1802.6474141771807,1410.4618097889677,290.6597080658335
1512.0,3336.0,16416.0,1800.0,1386.0,290.0,1537.9706816895539,3117.685621706253,16471.268816003358,1801.4077150680628,1392.2466951199974,304.93891921122326,1516.715675927253,3372.210111264832,16364.015468678088,1797.7653519051635,1385.0425089421626,296.7168974644241,1498.7772605613732,3399.685097926331,16372.009560080487,1807.7402686272544,1385.1052760380996,288.85477618301906,1578.741011668858,3250.231450501601,16433.406169370784,1807.5174649636629,1381.482836672197,307.2368164681294,1447.5415807062382,3318.6233612735273,16326.289660370043,1806.9312755786946,1398.5444824972137,288.56950616471136,1564.4760255874855,3327.1890252021167,16373.11882305742,1801.40599475641,1391.5369601731843,304.01596845527797,1483.8358891888256,3458.4458488740624,16477.12985463322,1786.605877186686,1385.5587914881073,294.1758737403127,1358.3857345769457,3379.6176159259967,16552.918233506363,1792.9617055202186,1379.1577095856185,286.0079384516222,1397.1591933631948,3380.1037007871855,16342.687447427665,1793.5695228267805,1378.965014554107,293.9069864247545,1599.8622216255776,3272.419730306833,16550.001612180502,1796.7555221030934,1376.4509424243702,292.98087163025883,1604.5605186161292,3380.0695644468146,16468.801065311494,1799.2307051352268,1393.4243681195157,289.6508784567313
1544.0,3368.0,16512.0,1811.0,1415.0,295.0,1532.200519771593,3390.918577049157,16477.61359775088,1811.187778272686,1417.6123564299182,297.29284203394644,1698.2731932421605,3290.7616811339885,16459.290422761165,1808.9625184268232,1417.200642656065,286.0044251266972,1483.644565239979,3206.1711357325867,16401.8770092273,1810.772801705462,1436.441080338316,302.3160023183324,1701.1903353377961,3394.375568461907,16552.055675595853,1820.3207258794248,1429.5155235564355,287.46064532143623,1556.2517442730086,3642.107434582541,16525.917045846418,1813.394009035088,1417.7660885132377,273.50501086472906,1439.6162891726087,3512.5201642544057,16508.8232823168,1810.0501453447073,1426.837631195458,290.5575994044659,1420.9330302067253,3228.3099904152073,16460.26595424108,1815.511955066586,1412.521082553468,296.3365609742895,1608.497472528188,3215.8259373251576,16384.81473391479,1819.1260300800584,1414.0311615060612,280.93558545303904,1547.8693911726652,3380.095929215107,16499.818459730217,1802.7497084504068,1420.3403811815501,290.90600089630226,1290.7858388354964,3430.820788626406,16416.674179344795,1806.5513660495567,1424.1227476889114,324.5458560631517,1538.2727270740716,3237.335971454447,16376.55768694164,1822.1376834737864,1420.1348520420147,297.3356165992498
1528.0,3284.0,16424.0,1752.0,1357.0,258.0,1425.0062977486714,3213.108722791813,16514.66189071146,1749.5257009772545,1361.6468594980786,247.5396056050197,1537.356538149393,3398.178269200135,16511.11437868491,1741.4254337620596,1344.7664952177759,249.8018405383605,1502.9965207747764,3201.926238085277,16550.191357236323,1764.518065277415,1375.2343373850001,250.43257134328042,1467.8524729426053,3350.766011047912,16402.849689931743,1744.6918505997014,1347.6854354228967,251.4653237838569,1542.376186518778,3244.914746802117,16347.93988276611,1753.1114362483174,1358.5069925673436,267.8717398643646,1392.7908426391173,3325.7943625715725,16462.097624200054,1763.3535943049915,1349.1989929596984,267.79196124569205,1536.150446001594,3162.739754237692,16495.195306689056,1773.0865931797573,1351.9621249881152,268.5225078244683,1653.7169963979386,3294.910746286965,16589.51594027019,1770.2117174364605,1362.112155049096,244.10332868299957,1436.56450287558,3199.858081607568,16428.731564397873,1744.1607133554385,1351.296680129203,243.4243136975692,1540.2720856728042,3326.892487500797,16512.765980262866,1768.8061923863295,1368.250471846387,260.726025368604,1601.4777071493386,3109.1357645419835,16545.727341770944,1763.2163642479325,1349.9965964691191,275.07260827483196
1480.0,3280.0,16436.0,1746.0,1371.0,286.0,1423.7028314256963,3373.706474402611,16591.387224742473,1739.2120275591913,1371.977058648885,303.39654137441414,1480.3944499344962,3285.7641533882966,16499.550885506942,1748.417223567955,1357.5641546609454,283.2942566347163,1487.89558857571,3270.7065509404265,16454.49247073867,1748.3654069299093,1371.3028561885371,270.91250881010666,1602.331500354025,3344.2433272150706,16549.34185761579,1742.8130174131668,1366.2004684702174,293.4538339432357,1465.0198266038785,3383.2313678368905,16306.767718529545,1757.649830200163,1364.4101933212628,284.71434638494804,1509.7701840162736,3387.853661160941,16410.897875646322,1738.761166014441,1354.4527163058601,276.16636093047725,1561.8779300559193,3162.740897674905,16427.16631009992,1748.8194465976794,1366.7872883658767,287.0825931304587,1571.3732403188928,3294.81560259331,16331.532957125431,1755.0927297750666,1371.543448980412,291.14944501550696,1340.865562679475,3241.633513149099,16476.69896670799,1764.2347316992116,1376.3543966270788,278.2748282781294,1403.248468248641,3321.9486226738204,16512.892099225726,1741.81169428491,1386.3229827958878,285.0840141988129,1396.316255932554,3390.498750525521,16299.684914926534,1729.0157865688711,1350.9134285675066,286.2781669571488
1492.0,3288.0,16372.0,1706.0,1335.0,278.0,1454.5902833241523,3251.02480277162,16327.511223070234,1706.2669014188546,1343.3751602907373,276.0073982349607,1436.8274230698792,3305.326841913581,16337.226008664897,1703.441079524936,1335.3592866455137,267.0136953225463,1514.0498608478056,3389.558040144497,16264.062578955207,1718.549587860144,1348.4045841034856,285.7427717743449,1301.1929151737504,3314.442681578428,16483.26055275365,1714.1059720093954,1360.1934942081575,279.01514118305505,1481.2703784524876,3203.4627137762545,16401.58123423661,1690.5271574814813,1333.3452054093043,282.7546653011497,1498.671910248977,3323.8907378648537,16409.239257811387,1712.7054069541189,1342.857717436384,271.311639857258,1493.3988727829842,3445.952401210745,16416.979570231382,1697.3008480291594,1316.5361953826605,260.5260217892523,1333.4181276353138,3304.2933237668717,16472.763649604854,1695.9957042942717,1335.1308660059376,266.62619906022394,1697.493692556142,3530.060086387848,16523.96670350009,1717.7659345437612,1346.3664794823646,274.35747172665583,1616.8371879751971,3286.3058376512395,16422.52866656852,1718.6623675434123,1341.527492567177,272.4607295972741,1511.0049656852448,3407.3266820400668,16509.92391019574,1713.6131956372515,1341.7411190424755,286.3406505312996
1528.0,3348.0,16504.0,1697.0,1356.0,294.0,1669.5281287038172,3536.6777030595717,16573.89300810715,1712.2711931003212,1361.152683016872,290.29716888869024,1603.317444504698,3355.977220537278,16685.754613040295,1703.477766197464,1349.0000397433957,309.084386185112,1568.8423137830296,3288.504673942526,16520.95921481118,1692.021418055915,1358.254288423005,260.96306125209935,1421.6676073312854,3508.9183934365096,16485.142198882102,1715.7314195957142,1361.0852647483457,294.36862245477045,1585.7528371461494,3347.721259015471,16591.187292121103,1718.1841405505165,1356.1557489609097,286.5219865554239,1677.921996714979,3293.6496712319163,16424.215268217795,1704.6038239476475,1367.6773679138898,293.76931884365666,1708.8352235051536,3186.8765581937037,16357.913591163306,1698.8769940971197,1351.469602509389,286.3981581233334,1524.264161034536,3309.8352145349686,16467.99142630708,1697.399239044271,1344.095434911904,297.6128539227758,1650.2638771567397,3285.17639921516,16600.0963659149,1682.237931237634,1339.3565060212438,283.13908770374,1569.3727357001344,3336.7241263613796,16615.732511872593,1694.8629384999017,1352.7998909107343,297.77235634971646,1437.5467219613076,3282.28450128487,16827.588182389736,1685.8921761332533,1353.9194331311403,293.47768928243045
1568.0,3256.0,16432.0,1785.0,1364.0,307.0,1619.2414333654647,3156.620188093463,16489.80987087014,1788.1203749022782,1345.1321503287231,304.3674327900022,1595.94851749729,3252.068147089066,16273.473849093763,1800.5195155220442,1368.2965856562107,302.0404955738578,1625.5366866094168,3202.9603856138924,16186.08257892186,1778.3472923546215,1360.9074590453629,314.3804671630893,1723.1565824997292,3068.7590225592676,16647.382181905767,1783.056594085819,1365.889473717168,306.60355211314476,1407.9304462042396,3264.460521664586,16459.690217676758,1778.561166029876,1340.0937878038974,312.3202705128602,1577.5681423032775,3260.998330953588,16280.580051323492,1769.1414382752932,1359.4672188286677,298.42452636937236,1440.8192970007428,3319.1719977776393,16334.645456705988,1782.636615754253,1347.4475497975786,289.8665471180501,1633.539085174924,3215.1360119035394,16540.69367538276,1797.4235914231513,1364.2120769615274,302.28942476875585,1549.230847965741,3277.257727821814,16390.68775304642,1774.8013056126638,1356.5907098376458,316.23559274162517,1523.2061125595083,3261.580642268009,16492.398883315385,1792.0682340977544,1363.690371867217,326.2194455781731,1553.6503013603226,3255.149521893638,16440.447982429163,1794.2253827015868,1349.636580876496,292.2053294624001
1504.0,3392.0,16536.0,1761.0,1408.0,310.0,1600.8911386686618,3376.7662589053343,16509.102033309977,1765.9925658065854,1406.5694213832173,318.2412723202232,1516.4027349414368,3368.76133177766,16588.01665384966,1746.8108235709244,1406.112586217813,329.90282272855904,1571.1470192571126,3613.4642688177223,16476.68444588275,1753.694268712348,1412.4298435563662,306.2713824731615,1508.7121781118835,3382.5876864689812,16605.803248135024,1763.7646198306527,1405.4642029229913,302.044857162775,1485.5096053770483,3412.595057715194,16605.367100490366,1759.5370711747944,1398.4836035035862,308.8035066482309,1758.2735489610234,3559.787759085861,16493.53293767314,1769.395272381733,1413.2068567532808,296.9979384632487,1482.7598470442003,3466.6067833190227,16236.868584808693,1764.1912780876742,1421.9125594178838,307.41545595657766,1334.1227425020213,3275.2173177019927,16411.191343728886,1752.2933858720291,1409.0285595444786,313.05545362284215,1383.0519738181486,3464.8723388404255,16484.610348865404,1761.7775030568002,1400.6152220502763,298.101792538408,1445.5185597459642,3502.9448125392823,16645.049077491323,1779.4956804648646,1389.80022052111,314.89433504392406,1511.2266877811717,3400.3943814965673,16544.449637494712,1749.0499056885392,1399.9815841400577,308.11410905470956
1504.0,3352.0,16496.0,1804.0,1358.0,307.0,1433.8614344673547,3399.8056054616354,16423.067790832694,1810.337824299214,1348.8353520251735,292.9076026185211,1473.1319199533473,3193.7198447510946,16544.94602301367,1807.1560618872768,1355.2403673310178,301.35436357348453,1501.1131042143297,3393.388519078916,16576.45617475706,1793.7726157178931,1362.838723174244,304.23790125584003,1404.6251352686531,3443.380642386472,16571.601926241332,1780.729422230439,1371.328103020408,289.00431338394566,1506.1280193005566,3162.197940550296,16557.15309157979,1802.6128569170903,1350.451880646597,309.0493250761835,1474.851547894707,3303.52290926392,16559.41281950375,1815.3394443864477,1361.5583464418123,312.2246378070606,1586.5884674808192,3168.5034927183638,16555.298434143086,1808.8318907852952,1357.8676396237381,307.52569494109287,1492.4931694512252,3202.1830698221506,16507.483160330332,1804.4189947605544,1383.2070392913888,290.71518198675847,1552.6566741280017,3330.1838244697074,16410.842768919363,1797.9866925630529,1341.311329132752,305.91048312526743,1443.1863059702807,3352.3725946638647,16524.160862158104,1788.224298556989,1365.799483168413,307.0115085328627,1498.592569151084,3453.3000182949463,16501.800153305994,1790.4342351091807,1379.724283803889,305.61926664258226
1424.0,3352.0,16476.0,1764.0,1388.0,295.0,1442.304917594548,3369.1418365931745,16692.288964339892,1764.1289646057758,1391.5664993360695,286.24917432814726,1540.6672128897692,3222.8298350775694,16429.63407334996,1754.6638910065124,1390.6501451791894,300.7426824246172,1457.7871507601196,3415.4726393388646,16470.13924324261,1763.6372016653472,1387.4050078459231,301.6055854821622,1340.7197871334245,3161.9778462657696,16610.407000727784,1754.1277320983518,1382.8995787156625,307.5412774744681,1293.1784132846503,3418.1549643563594,16507.55186867693,1752.0600508872194,1369.1490949189233,292.0979415962593,1452.418631352461,3214.995697315869,16294.328029884018,1767.1005852887395,1400.2873777748434,306.83917277526695,1271.7492410988095,3459.1189031139816,16370.890564104458,1776.8473818715668,1398.5085943211889,294.54638915408304,1692.3491415953486,3431.1520944969784,16459.192970205848,1770.6394663498554,1392.1878166149816,278.82385795078613,1509.567015456739,3292.855841950018,16503.39751672442,1768.02571063114,1384.2545695757044,302.0220848291946,1614.7023536639615,3360.7316450106737,16476.701210277286,1769.0798332417198,1405.1533046935454,292.9795463012302,1564.7402005877932,3284.933995163481,16366.833566614792,1764.9509581291725,1379.5126515184752,294.7720845977721
1476.0,3340.0,16480.0,1770.0,1377.0,321.0,1428.1457390827031,3302.0301606241883,16414.093862301288,1780.0005071326818,1364.3331576135554,325.551479328874,1457.6350516355012,3291.0407986833525,16214.60148218993,1759.6201205278744,1363.6673125026978,316.66497926034236,1460.7869759841315,3423.6217372102924,16368.790846522656,1777.3640658638035,1377.9140446540196,309.83466544096126,1529.3262011405716,3317.9992706778767,16591.811462651494,1765.6345791265644,1380.0608326397187,315.3254399952114,1407.6761790247606,3304.3723589191723,16399.908669594155,1767.0365136204493,1379.0450117044056,327.584015374883,1518.5329877220559,3555.8835638286964,16461.207986376077,1783.2612348666632,1349.0675732365498,316.7398168747884,1461.4128496838212,3263.833619619545,16449.77886413127,1758.5244871272737,1366.5018632919532,305.8496633372486,1508.1131431653716,3372.6309508957233,16539.180168571434,1754.2063705709238,1364.5603424442554,325.5563502352783,1567.2832238179508,3354.6449511699757,16620.308475071153,1756.1948849503012,1382.1317338637864,316.1602695318995,1483.6284545564195,3375.059568677288,16342.605277763902,1754.5621076969076,1388.5257696135782,332.3510235941971,1394.9444037879623,3308.3390675794103,16628.578183247086,1768.366605807115,1379.9356760153614,314.7328622094905
1500.0,3348.0,16480.0,1749.0,1383.0,281.0,1487.824272764364,3228.1156749428774,16568.340587102954,1755.753511095255,1390.3793366722243,276.4374040778883,1514.9603283321503,3453.592269418873,16511.205388697505,1756.1874749702174,1389.3110763641048,285.50066416095547,1624.0293625757251,3431.757285626049,16548.5643412072,1734.3908505556108,1379.4619892132746,284.9065150537535,1519.5121815481393,3304.62335127034,16539.356158188617,1746.6604402527971,1380.8733642030154,298.67844158226234,1405.048843017039,3430.0447371834925,16406.101616515924,1759.023626321075,1390.3247603110215,270.7534294546935,1499.523412278651,3422.043644844982,16638.388585275028,1770.637252488969,1370.3343389672577,283.40364355226967,1469.080448143337,3244.5282830072592,16593.287705538456,1753.7900191704243,1384.3312829355552,271.54198915762447,1528.924419206337,3246.306417132375,16235.849916722484,1760.5406283674452,1383.7546499905204,291.69932374139665,1482.4023153140165,3497.2041553388467,16532.14065435726,1749.286032334518,1368.759931935769,293.1160096955938,1391.7369338497613,3297.715629830901,16548.34845167769,1747.9950904559955,1398.260364275586,261.2282466586623,1400.5057342217533,3174.9964283195363,16340.00454921026,1745.491625183658,1389.6272004651912,291.82586306518454
1568.0,3316.0,16440.0,1744.0,1390.0,319.0,1614.6485823306675,3475.105540230858,16476.300919559166,1737.6312865136515,1385.5357958543198,317.5023046153396,1454.516553706866,3455.158817094391,16515.150880331727,1731.03754152364,1392.5254042020981,319.2213716175048,1544.4702401934856,3301.242246279779,16537.600359465512,1725.1976303340139,1393.3130236062752,311.612850817061,1786.7776989129957,3296.398591089045,16372.862494999228,1752.0835292500014,1392.3589255983838,322.76766192610637,1441.303648347608,3399.7418005041113,16481.923457501292,1745.5124387366343,1392.558855283012,311.6756372505907,1603.5388871903754,3222.1101725176472,16512.316191872404,1770.115356133898,1392.1522847707865,307.0855903918254,1512.4644049745991,3253.4665445532014,16381.512475442309,1762.0749295749767,1372.2077140497559,310.32904370251885,1388.1171998443097,3426.943255160145,16503.85640810551,1738.644320634517,1409.1442584450263,322.692730376476,1524.313939356517,3445.774175272532,16571.55597083759,1740.5636700080602,1388.4626453574913,309.6526198966268,1563.5608838043518,3347.9130492591844,16604.680226071752,1747.8284039026014,1398.4588140295004,313.8439410630955,1555.452569699202,3134.1711821268696,16438.21713811755,1747.6323733722677,1399.3076478490432,327.4176378410861
1572.0,3288.0,16440.0,1887.0,1459.0,348.0,1610.7742331879626,3186.093120850659,16455.85893719958,1896.1657890170563,1456.1118873773332,353.9658660696842,1649.6862791384713,3444.9232699735803,16386.516356227938,1881.726918188733,1452.8523734232137,349.784873442262,1493.601024695605,3134.6628912051337,16541.829425844186,1892.4874188673302,1455.5273485729215,353.29528339319205,1715.9857207339476,3345.345515899876,16434.12561247022,1895.4155101301633,1467.034935109017,329.4394076580881,1594.5057554188918,3285.182289473661,16397.74477229635,1876.7449781087148,1445.0750934606124,360.60823060125176,1340.802334928449,3301.1125533017853,16516.977561344145,1881.7802774625964,1448.6120887631662,346.0762858626959,1491.2272296858932,3241.4299204272615,16426.845183822326,1872.5514830100785,1468.814764683883,353.6598777820728,1755.8687327140228,3366.6533132142986,16583.29945587422,1888.598161117573,1451.573230190374,330.241005603039,1673.9831816019355,3212.821737391882,16494.490199678403,1879.1003934299683,1457.0027668003277,339.8319671800589,1632.8296421202247,3330.876833753582,16562.839935618307,1886.833759593698,1468.9621660225544,344.3612801918115,1573.4749408478767,3262.2838159854327,16519.102759327405,1879.3341751509458,1459.0864672358578,346.7240128167039
1544.0,3348.0,16484.0,1925.0,1455.0,402.0,1683.21874785525,3319.4959197743583,16327.524934318353,1927.6101328412658,1467.9857598329766,392.38297163464927,1491.3327929790214,3402.576484925472,16433.12406464261,1925.422401323048,1438.8662786400678,396.91934973597495,1584.0200662666487,3416.830838415676,16572.809615849823,1913.8754016491112,1452.2766120943418,386.00671107446567,1519.7790635348636,3359.8821430277862,16617.709351417012,1918.6474475691996,1440.9984015018006,399.2730887123693,1687.296450600083,3253.487310518906,16317.239920511738,1940.3412053168158,1442.6185386324082,392.25347759238423,1559.8792759833696,3472.324698784288,16626.241116540117,1915.7260620961085,1454.5967463619947,385.632338395315,1506.9064084486295,3185.8553850899866,16742.747348899455,1926.1581221278057,1455.18119499539,408.06760006284946,1510.588283447049,3270.3769151603774,16501.58458322739,1918.1806257505762,1454.5632759636906,408.943060850015,1596.9547726115998,3313.1712006723337,16684.45600884182,1932.222650354602,1443.7289395651906,411.2380956850082,1483.6777563903102,3140.9795045604583,16554.468066862068,1919.8115079636975,1443.5535378074153,411.8767506139442,1541.2057758931205,3569.0481182257745,16475.328955957844,1910.3151384686303,1454.0300581866886,394.29597098426257
1524.0,3324.0,16412.0,1843.0,1429.0,317.0,1520.550278437334,3260.7424166838346,16409.548781665108,1856.8762539888928,1434.6938543163037,340.5374640095585,1379.6436017313151,3342.1835845402757,16560.497274247726,1845.9479184354648,1442.787537918918,344.913102249364,1615.0672007612318,3227.4884630035663,16627.001663273983,1844.8342741404635,1426.6885487890534,312.17748821292764,1455.3666794536275,3318.111920227417,16510.284950700217,1838.3015732781435,1442.7921157315793,316.56202880636135,1689.190337775546,3635.995936950631,16373.527292928511,1838.5738904577252,1414.5496754633298,330.07247513734967,1558.9574212485657,3083.141522224031,16541.079644112982,1841.1020329378273,1429.7117734487779,312.5827810434508,1515.9377052889424,3315.794363255309,16533.806896380695,1836.4108194755638,1432.3470968724075,328.62923706023906,1521.1197820532236,3293.1951376910365,16252.29575345863,1843.061955961558,1420.360692765253,314.12338605826693,1622.4513306478423,3547.4285306038373,16411.80047628941,1835.7252217576977,1424.8157278772278,325.8585005970236,1446.7939783935901,3272.446430689088,16383.896194457544,1841.4430955033686,1420.6028159490752,322.35798588425337,1641.7685862662754,3445.7772180130296,16378.782321629367,1836.4855399610644,1431.1757825521163,322.1286412130461
1436.0,3428.0,16516.0,1894.0,1489.0,299.0,1484.8733302643031,3288.938046555343,16516.307283986716,1892.2266596825425,1484.7339502245495,310.5776178071294,1549.0947592673485,3543.4702455964753,16422.93337690283,1887.2514723935196,1497.458984026424,305.50932615694944,1465.7851875590677,3504.8540224869867,16521.01318418437,1889.0861380599024,1495.665674356031,286.57423349694443,1423.7596100480398,3465.5343937295647,16567.85397372198,1898.903423390202,1496.9291326670889,285.0293861487905,1369.56570792694,3152.8420753932937,16463.51014459592,1882.1213236112799,1504.4843404631195,291.19890477957483,1442.2133465365148,3480.746204413044,16522.008077584116,1884.4994965677706,1484.8436712180544,300.56381479625423,1580.4356467490643,3463.161547686078,16485.207467561606,1909.69801203124,1500.3753034295116,283.1248323833168,1389.0530133231814,3397.261451310604,16709.598348741205,1878.2883084546784,1480.0307243945124,301.1456411688609,1288.606726736859,3344.60448069752,16379.233931328657,1887.9523688064073,1494.9787200479648,299.05794686254086,1552.5725409577283,3443.87759067981,16551.194883622178,1891.9350081915168,1510.5870152737607,298.38481354685257,1506.407563211323,3566.5031543170016,16490.311853918345,1908.4484247299395,1490.963768113382,287.48291145359934
1516.0,3388.0,16452.0,1759.0,1344.0,305.0,1497.9247593044709,3397.156892237238,16350.097124762944,1771.4190924473533,1346.0541966928363,295.95427497812574,1542.6137444941173,3427.749507574539,16553.864287629203,1760.8830237748446,1335.1750992543061,306.9462322795425,1593.0093006109203,3379.2458632589837,16503.125665375166,1759.7585347213658,1348.0492993987073,305.4948013439655,1452.1529415902,3396.490692149749,16415.941333984734,1775.708713346353,1338.9738692920757,301.62319423826676,1471.744830437416,3410.5370635104828,16500.66610101028,1754.929509081721,1334.452730619625,313.6952626200776,1647.037619453858,3265.9745770919403,16433.418358920895,1761.2022842566998,1322.070963085291,312.7592735261075,1531.6003207420342,3428.188584524474,16303.557195042973,1760.5664045748467,1340.5350717269507,308.56985553193687,1580.799253324151,3431.841967528047,16445.382512345142,1772.8204647026278,1357.029999552593,306.45772765625225,1702.7069611250226,3381.497399608245,16310.558186377071,1765.9248452465301,1356.4463925933198,308.81924940457486,1597.9281340315897,3399.02085400645,16343.420408265936,1774.1773742590367,1343.4678634707645,304.1386709180068,1468.7801217043263,3383.7765442974346,16382.712033123484,1762.1406474767819,1338.8237675489597,286.7066758360583
1568.0,3232.0,16424.0,1938.0,1483.0,313.0,1674.2583285751853,3186.273299549723,16366.688320128365,1936.5515957248651,1469.479713559093,307.67785279595563,1711.179753331226,3256.0256837697493,16463.878809952836,1926.3471121237944,1497.2652592742058,307.3968775059578,1609.6049535709715,3215.7057523094018,16390.32983671184,1932.1630261567575,1469.3951741050857,314.69605750494117,1417.8718627324845,3142.58423378189,16334.467998145734,1937.3098486349315,1506.9868719648541,312.2037621604355,1584.400190379604,3259.6883193155177,16250.968447141713,1925.9666058493985,1497.023008966093,328.2820282031017,1563.7349033917023,3244.451494448943,16513.533169648967,1938.151657889606,1478.1239182264098,319.4548394013775,1608.2311934027462,3124.866397647435,16539.97334585708,1925.3782499204208,1474.4746346403356,306.78721350495175,1511.1054598446779,3238.6953761173463,16606.09904805059,1936.0895689908225,1474.018810941344,304.3670860275046,1351.5796802321026,3233.69131324043,16417.73978415783,1920.9212343573452,1495.856010110969,319.6527938221514,1569.4729532391366,3342.929773147214,16534.926714699726,1955.0223626214085,1494.3530394216218,322.41873942987075,1320.5762503860578,3079.047248937263,16498.42724452151,1945.4891881721178,1483.3297754915277,318.623888333678
1464.0,3344.0,16484.0,1874.0,1413.0,247.0,1459.717329207302,3077.811183655028,16416.96894597253,1864.1224145319065,1411.213241195043,251.22867826732949,1392.835603035785,3301.764626140639,16404.393770312865,1874.1677625960504,1421.613457382107,258.54054988771037,1431.823842032564,3532.607132112747,16405.014257415834,1865.0800662146103,1416.7458670702576,247.19657381621113,1405.5521043474866,3551.193378046663,16687.459425049918,1862.235741029088,1403.2645437182866,236.44678663752717,1454.092538051057,3342.6190924819766,16596.677626937173,1868.5471461098232,1401.7012983904754,255.68151547711238,1487.9282021982806,3427.0665473487293,16460.929428610492,1880.7788840318478,1385.1100921187497,259.2506067755029,1454.903883498136,3270.551424307129,16667.131749292847,1888.840598626602,1399.9216297628343,242.18061594867967,1482.1012052241447,3467.279186456769,16419.725349709035,1873.0629941058248,1409.115200336554,254.20362665338547,1515.569671161278,3300.1010239440493,16413.6460136774,1890.8028007092291,1410.0727255541806,242.22610534059726,1456.3072944799321,3299.2968021184906,16503.375584289515,1864.7276311796074,1412.1544319977534,260.23541742770936,1525.7026323818604,3232.034826207233,16504.35518660317,1869.683573149803,1417.8281336396371,248.48853383015378
1440.0,3452.0,16540.0,1772.0,1337.0,297.0,1341.6982022530733,3485.610921068197,16511.407903797994,1754.0648394267062,1320.3275019908976,300.7892307428749,1430.297789527873,3582.366467098947,16607.80066611218,1771.864820722174,1345.994277921368,289.14557962256845,1547.6851756802255,3585.7035319720108,16508.916102090305,1774.6105030187393,1341.0114641319653,297.33083625468225,1501.652264112678,3367.6511209580044,16317.932868433954,1784.132729091812,1339.1071975214193,290.60047246690357,1371.1661947671478,3349.6435307319325,16590.810490009793,1775.2019450911196,1342.0418577505307,290.2622269115865,1472.7744107051556,3421.6136079103526,16547.8519685905,1774.977158177832,1348.8858721777783,305.03769414554085,1495.8646407410142,3441.601912815414,16349.162340927667,1774.0495309530445,1329.6149080181185,277.408787177442,1390.7294815805903,3375.2458108765986,16551.659609201477,1762.3577089156654,1340.6936514825454,297.76005373962806,1541.0558714750327,3448.9082058567647,16433.03404631119,1764.0349107704517,1343.3712758093357,312.3408906269682,1335.0076921287202,3581.806963639299,16655.19636692912,1774.682847701082,1319.776814912616,291.058272034075,1489.5826008818335,3376.880226424575,16472.97783435286,1791.8769521342715,1333.4307010859566,284.96250105340704
1476.0,3408.0,16424.0,1763.0,1364.0,295.0,1600.4960941023517,3294.8317707816655,16267.36209221169,1764.45602130989,1353.8834748570696,292.2354570342326,1416.057315765314,3397.604639769484,16442.62654855345,1762.7439112573265,1350.99136711832,288.49936622749993,1453.0617894151312,3166.5093856980784,16351.054713727375,1753.506606117154,1352.010432187752,292.56701999864066,1373.884359150413,3448.6051801561453,16465.022399107926,1755.6545827313091,1357.541834976384,288.0529668414871,1565.7484311611504,3247.1337237097273,16541.59144710037,1785.9093366269567,1366.0057903458112,302.54296390089263,1448.3902482116748,3348.1385939594325,16555.90659833936,1754.2886567472642,1367.2064593861294,303.09737239562116,1651.5160851390788,3397.278508811725,16402.348932668297,1761.0004620564268,1354.330125995748,297.2155109949278,1448.753650594174,3315.773986793342,16220.77434059388,1760.0818110115147,1361.9247370446965,286.4428105728679,1557.4238968197128,3378.6670775097805,16290.015986731609,1766.3976363164509,1374.8464774144659,289.26183327771946,1449.2569483171235,3371.637645566867,16499.62594882852,1764.8129060893657,1377.631154553923,294.215252918101,1583.9827762203086,3486.4396980374167,16543.285610802242,1769.5857483722423,1362.7062177498628,295.65397659092093
1484.0,3364.0,16440.0,1698.0,1349.0,269.0,1498.0171163241828,3447.014306459833,16554.473140523467,1686.7218815865199,1355.3549597937322,274.81981922726595,1513.1311968745542,3319.983675686428,16413.822593219385,1691.861160099127,1352.8205382474025,280.8505398658256,1389.0966127118286,3308.081550909567,16393.9518222069,1718.0967997241137,1352.336391232062,268.93273583777574,1549.3700888144263,3198.3879268915794,16599.529542948738,1704.2150407382042,1345.8522907473052,267.92703527888455,1468.426127470725,3372.7459682567824,16467.05007758261,1710.996492932189,1355.0264195387413,256.72231601995065,1607.925780495105,3499.7137856485288,16373.523189425923,1692.3858183175332,1363.6587360718622,276.97202915537537,1623.377269375932,3439.386603919629,16328.582212230893,1702.656406034897,1360.0981601181875,261.96889924282283,1479.6531020215157,3470.402429781692,16435.46586127638,1704.2012861257776,1326.3398761201538,271.92196738295706,1381.0359475061439,3416.780841084237,16427.04991022136,1685.8604052425542,1335.127367096241,267.76442119773304,1423.2487622575413,3333.52938526848,16554.216552775604,1687.5592764508754,1342.7319789637693,257.9617794984988,1445.227664974634,3240.40470968476,16278.470691395578,1695.6750176280004,1344.282195446011,243.68712457212848
1500.0,3444.0,16400.0,1781.0,1379.0,280.0,1768.0288252223954,3556.7716836514696,16479.256588256343,1766.8437501901321,1390.9045898384863,280.2713468227013,1412.591402539106,3487.557937841768,16488.633934968468,1797.8101749462592,1399.1643547763867,275.8428020524474,1300.3487054137445,3541.3856838176766,16286.347308015776,1784.7591629648477,1370.997559686104,292.8920007895058,1559.848920030813,3480.2883833558535,16341.476819793561,1772.582823106168,1365.752108689902,285.7480821020154,1559.9560483502307,3415.559275969156,16455.86574017591,1780.1781285024756,1396.6633581538442,275.26794341931725,1537.305786225632,3266.5754813295994,16490.660292043627,1764.169850814263,1386.9983812115388,263.76575616795725,1414.0841412131592,3514.990161547968,16326.493838201426,1778.567292921754,1372.4784750848032,283.38770517188965,1614.9777223096391,3270.5011091389697,16491.516076935095,1775.0856820953738,1401.3744149521629,259.5528645655577,1354.61355497031,3463.4078158745806,16424.065615638498,1788.2230704223832,1374.4786227079535,287.284497669259,1555.8183454889772,3277.0304171632256,16349.699699127494,1792.922323472964,1360.1817697796148,290.09482640486647,1429.920862404492,3619.7601084386024,16495.47953651859,1798.630579264586,1370.9015765013644,281.31788033731084
1488.0,3344.0,16452.0,1701.0,1310.0,285.0,1549.4833542006209,3222.496161805899,16646.32751751782,1713.0659671222747,1312.7226729406134,273.4337326698166,1557.0655932205334,3296.282223210458,16391.811870560174,1711.402495977311,1327.8267098064828,282.59268643921496,1412.4571294661782,3444.035806094817,16525.054956571308,1701.0102398425756,1311.3137525751017,297.62019693201773,1576.4466509831902,3463.048149723757,16420.344161763875,1713.5605863572682,1309.268950654463,294.78563651590184,1562.4575908768345,3218.168291256266,16463.434093544438,1694.9307792826069,1327.2130364834443,267.02269075585025,1448.5282485357454,3327.671549079766,16529.140962580463,1690.5074941215935,1315.0469029079084,295.0579714364433,1518.1745860784868,3306.995283342684,16534.37279547025,1704.7283229229447,1305.593905388849,298.7494689136422,1334.9201837961477,3275.1790811624574,16603.730597363734,1688.445581543815,1298.1378104811904,292.27265228118534,1683.587129368866,3312.912634080942,16411.409521809015,1704.1114951846541,1306.6574813434454,301.16561541581456,1511.9644343783991,3271.504240495295,16417.182447946925,1696.797545623145,1309.797225785946,276.1633466713672,1472.7444539851936,3233.7980829664966,16540.502614469784,1693.51713039088,1328.4065243582907,286.09577687549057
1484.0,3432.0,16516.0,1767.0,1383.0,286.0,1327.3454502960992,3445.8875915057165,16401.45564756211,1773.1186245377191,1377.1939493245218,295.40643880158615,1408.8134918124645,3452.503101836195,16358.81848468905,1761.0901518654614,1393.9129183839275,278.30966495842785,1533.6835959371617,3366.8900686349743,16408.87406527957,1763.381265783574,1375.052655371927,297.2672490630823,1563.7939155228933,3444.1606842154856,16382.41501676041,1771.4212617974026,1371.0362692126282,282.0311994120023,1617.251411901003,3507.757054576741,16610.219921570897,1758.089626598368,1388.0107898356466,280.6913908679213,1364.0066070616156,3494.5674628603147,16646.96793638867,1767.41896376297,1378.1768500108283,275.10880737432245,1425.9782202868287,3409.9985340538283,16523.261357209598,1768.6342626772569,1381.8335823887985,277.83457527063547,1491.644645180228,3354.472206138247,16600.096342644516,1764.399067724209,1383.7722490093086,270.74092264609567,1428.6160745496761,3291.881033681098,16549.246882481588,1733.22494004319,1382.8232768084963,267.07017680776715,1442.122765904735,3504.16650310083,16511.37625415469,1769.9466799184227,1357.2004933836417,284.56704778026665,1291.2553066313794,3540.582460132872,16504.686740207722,1772.5669847246133,1398.193507671488,278.098889441944
1488.0,3340.0,16356.0,1792.0,1430.0,310.0,1529.5561201847631,3346.3411087164645,16296.610390877908,1785.3587860443845,1431.038642816189,312.7969095052597,1445.328667440871,3423.197419933341,16292.089436815128,1791.5140009442478,1437.056319563098,318.1542712201011,1422.4073992076994,3329.9594040200654,16516.025078269104,1809.8486602799794,1437.094081148153,319.033218332087,1449.275530185931,3405.1567267717023,16472.83046391494,1783.8735521120511,1429.6176210964477,318.6101965511268,1639.8776963767643,3347.8911418593348,16317.900977307545,1800.6924352071576,1437.327186274981,318.731942280303,1338.457541720998,3609.9489395907663,16545.090579142277,1761.8680891589347,1429.4512526910637,307.775099347912,1475.1009601878106,3377.2060023976364,16374.164452937905,1792.2322275346032,1437.5946032300976,320.1285579172176,1572.8237715382843,3339.8748830508307,16575.768701629568,1793.5498430181458,1420.8654017435279,326.08318529028884,1504.8809092908098,3339.35872737877,16216.570622835374,1807.2624854810708,1426.2410892357816,296.9586864064143,1338.598215946076,3259.381175677593,16349.005184871776,1794.8535699066615,1413.4731186140305,321.7985751159543,1430.1700722679077,3318.9801297372264,16466.988877579894,1781.531055359502,1443.105962545318,303.918977293001
1452.0,3228.0,16380.0,1841.0,1427.0,366.0,1366.6302064125,3188.6379317366673,16427.455766743024,1849.8264406360797,1435.7512966839838,367.4700204905761,1593.741179254183,3291.45662209819,16282.144228175877,1848.1765802860764,1416.7588512215948,360.5761319733078,1405.7696358344,3159.9017612140633,16513.238753251724,1848.0533392346877,1416.8038594380178,376.4319243566663,1651.8222734861085,3171.7011016809065,16537.14122223947,1835.4526184043618,1428.1216777020618,368.82303206088307,1402.8921756732443,3269.7238096853803,16548.458215081697,1854.5075430102138,1430.4142059392027,363.5870636991019,1573.9450068031344,3287.6418557080624,16518.812971755724,1848.310976636522,1436.3015839441057,371.13490068034343,1642.8828087401344,3318.6915737239956,16327.7381147154,1859.5869862690633,1434.0572926281027,369.7589886949619,1398.0395623992301,3219.3135186265563,16414.038187573482,1851.270383393428,1427.0004207308555,355.05459049389674,1414.4671368261702,3193.1906198826464,16238.171840865525,1847.5216062572933,1426.6757339275323,375.57749251599296,1572.0349098035997,3149.608753648539,16404.5812435043,1860.9300788545295,1444.8124229901905,366.6573576576963,1366.6162116679643,3154.7775153955995,16485.491609582605,1832.39798896359,1447.1763823177225,370.5896200934324
1488.0,3308.0,16388.0,1757.0,1385.0,291.0,1416.6634135157963,3212.7191582419564,16358.329047142133,1773.628106593017,1385.6526982412956,304.43514976424456,1439.9304752562489,3344.4594393089365,16447.69699013677,1750.1776779038871,1382.6104383259183,294.000555861227,1454.6374009228064,3255.0096872178997,16418.25156845805,1759.0470793649743,1392.3471336333266,286.3199418757004,1469.0341347477213,3298.680768173423,16328.591606038255,1747.8770327627049,1396.2193245163267,286.24685225814187,1506.9852338974806,3170.958405100139,16382.822731630193,1750.593047403926,1399.2687435892922,285.2506563806226,1453.5715332342509,3333.4152488722857,16415.0022208017,1763.6774878683204,1391.061130363166,298.83468542993313,1459.3317494583546,3164.2215489878467,16418.004610567277,1769.8497018201065,1386.5825474875219,303.7271128286916,1294.6974109201908,3283.4112368924075,16353.04772734206,1759.0537633797794,1377.1701634330814,297.50380500811445,1620.719263204426,3182.6290704393364,16580.381962604784,1768.7908610095753,1371.393265021675,284.6598545452703,1432.890286366658,3402.5537611960726,16446.42312639868,1747.484429594043,1380.6375563291995,290.6899909595744,1390.3951441115958,3280.3180927602634,16369.551871968048,1779.3356527483031,1397.9056962792624,291.4322684534776
1480.0,3424.0,16384.0,1799.0,1380.0,365.0,1463.7753374381052,3442.358330516688,16208.87603714405,1796.8683247124486,1394.2174130938954,384.6686329975919,1531.381432124673,3346.1046856772327,16363.598272565878,1801.962457594655,1398.300922563868,367.3234253982547,1607.1572007785269,3561.332970106926,16635.578059095205,1812.453304486149,1387.8666628195958,357.9657061890374,1567.7330220064202,3367.5137832924684,16428.577137954693,1790.3758732393073,1372.8504575925972,365.0258723091427,1399.4392480884667,3373.050537888732,16271.261072382214,1811.7740735673433,1376.2644469134689,368.0511664284413,1481.024069751062,3353.6138291351726,16418.47813218869,1788.7060575069886,1371.8747879658051,355.0476582011007,1256.4327404158994,3365.795982734118,16514.149343680296,1807.9580617123434,1387.1676153660644,379.20465057249584,1403.3022713745768,3358.570844600789,16312.766945586985,1791.6562714041174,1385.446769591323,340.17773238408574,1391.3407750157503,3465.798295558903,16245.49839577312,1808.3584056777565,1366.7389829176223,368.36169834219623,1475.0089407789728,3486.4699004858435,16380.920565939383,1782.9200106250642,1374.9591537026645,358.97837293645614,1514.2451618882692,3413.6483228599827,16364.985155257371,1792.9362905366993,1389.1661983211748,357.8289118930608
1520.0,3400.0,16524.0,1792.0,1385.0,341.0,1620.4822685999036,3491.141940939659,16594.495465100266,1794.5087922895968,1387.7056288059403,335.9386656583846,1529.5805012168792,3503.705067639094,16525.69538369787,1798.1416282455987,1380.5797962443933,361.4812047907023,1559.555635603236,3418.2361629471434,16585.812036690244,1797.3414329005457,1381.6047414367101,355.3073236210852,1597.1227894953536,3352.354205497325,16701.220098247166,1791.6321506961708,1382.1878904073262,353.08703659603094,1254.0756041941095,3489.865085051676,16665.641499111003,1788.957696681784,1379.9572922118884,332.0322163817522,1324.1328918680936,3380.780336511445,16573.465441202632,1789.4705491046566,1370.8364506628468,332.89860751532365,1381.94636928393,3304.491025505408,16501.15847354346,1795.9424809317313,1394.2595700387058,345.73204662338037,1510.1823546481044,3548.910035125921,16563.633541172956,1767.6849169257987,1389.7324247986974,343.5696479194001,1620.678740803047,3470.5996840833213,16658.1055511161,1784.3025606538008,1384.3129397213897,327.52390544201467,1781.025226240361,3447.860124064425,16438.281784158098,1810.3662480115006,1400.7439254301007,347.0443420859779,1538.2282158108221,3648.432340705018,16438.152329383243,1785.6849026836128,1386.244137293479,321.93743498679567
1264.0,3444.0,17120.0,988.0,851.0,-479.0,1262.6329927768465,3258.5845114940953,17111.528002446725,990.0574725277866,868.1861339653341,-497.0746817081316,1142.3970280933233,3611.729951467301,17080.288028249546,979.9884557670617,835.2974004951004,-472.9547400319612,1131.89423994468,3420.4980245056295,17336.36301295305,973.8467635496091,851.8860381758094,-475.5251072409585,1244.9014234456913,3423.7761839182117,17154.912645215372,996.1535045436398,857.9261280110235,-489.19424523217407,1350.9626239843612,3433.04271411955,17044.90006872329,992.5378941345625,826.204852917132,-464.0827725229828,1004.2132052613657,3495.5789357782332,17300.722914971724,994.804553327316,849.8263510515665,-482.3350308729998,1275.4787165818323,3508.1990516287924,17150.70220792501,991.3423905942365,848.1781394972584,-487.40446413936627,1135.160988274747,3285.433675114918,17270.135339550066,988.3400650989712,861.6066498337614,-499.7128936255166,1274.364462312775,3468.6843836355847,17134.950444415263,994.4910876561233,871.1599817402133,-457.80726338894436,1321.8644202750752,3609.3103045529956,17168.362301828176,980.9621773256246,851.4196907363672,-474.1674609906151,1173.8278411797996,3442.890350022481,17046.521602283767,979.6176963206259,842.1705109809997,-479.5946495133274
1600.0,3352.0,16184.0,1571.0,1207.0,-529.0,1584.4142526103246,3364.0284733174267,16234.177870587771,1571.594500130147,1209.466433038565,-528.1813470282713,1622.0431990411682,3363.966361038135,16219.008989521528,1574.5825174657052,1204.7096804604462,-539.1138773566113,1522.2195291369112,3453.8569672762283,16025.654084967697,1563.1642263092215,1204.978454052222,-518.6911052438785,1662.773042851084,3267.0156995345137,16217.467956023342,1578.0330953893742,1203.5670531070712,-520.2791281679006,1479.5841942833486,3470.9596726990176,16255.004382032648,1581.4909245492552,1215.8911854469254,-534.8613682110804,1664.8937132467825,3411.2487226416156,16048.210617299488,1563.4723995039612,1207.2267112982747,-523.6219725166766,1552.4643127395523,3361.523732382603,16132.206940049567,1574.7900169967036,1215.9321318695208,-508.4052107573103,1623.6088242988155,3328.8448966567557,16099.784457654063,1582.226512566661,1226.2070286112446,-517.2345760541997,1656.5549043113913,3456.7304937389677,16169.22841911188,1593.3654614103552,1211.130896514362,-523.9560441384006,1772.5006703060146,3274.2135452245125,16232.186103368533,1565.6324916253698,1204.371007640206,-528.2023753385894,1550.963602937773,3442.0777646469064,16223.454167932272,1573.4014676234237,1204.7046680585784,-537.1051194094715
1648.0,2896.0,16156.0,1800.0,1412.0,347.0,1609.3846215129397,2956.7610295363365,16184.560523778937,1801.2785618636092,1427.4215367930774,342.01441191510975,1711.0721493123976,2848.3517799003967,16221.563392993183,1800.1257753246314,1422.2075855501992,348.8537614221563,1600.279932725173,2787.4559302519388,16318.246645886251,1803.8596887592041,1413.879260928739,348.2173950538634,1674.4506012315683,2842.1477554577286,16161.855540370281,1800.6539192617402,1419.7616070949205,331.1641821464202,1599.492039390953,2972.674173724539,16039.673384627988,1802.5963745792685,1419.7158344556206,345.81444471930234,1775.0504254982377,2769.1847858021556,16147.29653862075,1797.4139396855192,1403.5031318356544,342.18633259260054,1534.3321842142318,2792.6429500228596,16103.71173630544,1800.5012174898402,1420.910107216575,335.3789131124688,1649.249837649003,2812.044753563646,16011.31724833355,1800.2605896929135,1418.1318116825155,357.35078286598366,1524.1833625215115,2889.3335582869104,16121.665235276756,1796.5008582599442,1411.1678839612748,339.1328194046574,1637.056146413251,2965.792401800023,16034.72209047103,1817.8216391616165,1422.4796618979642,345.113190156665,1622.6796277453498,2917.486848296661,16145.817446045468,1794.1675658924207,1416.7125612372618,355.9732526306147
1664.0,3428.0,16116.0,1697.0,1356.0,265.0,1749.8039774997637,3343.3605464534708,16121.012019972608,1717.8439331507852,1362.4295840402795,269.08751227353827,1621.3394251343632,3528.7368533544254,16117.294344558753,1704.9697829960426,1355.1225870919313,280.06382266643215,1558.393356235374,3451.6261292349745,16045.5883899707,1699.7557101299017,1343.431890226576,274.6496834241613,1561.1872915931767,3415.235455913019,16125.364611990806,1698.2897409129555,1348.4116890726425,265.2091240986549,1556.7363733146908,3407.099645355654,15987.911333223838,1701.2750770592095,1356.8503889719523,266.4256767266412,1552.739754279657,3328.3723127688886,16052.678095097606,1690.5688348329147,1365.5265898513733,254.18966951475088,1857.4136958342526,3389.7724360971533,16235.852100727252,1696.817882947902,1350.8581469664782,253.0419908710306,1747.012821910865,3471.7411965547035,16222.868053616363,1685.0079058694898,1348.7532551847605,279.7986250441945,1593.1927333516526,3437.690911515668,16022.080967108219,1708.0222255932742,1348.085568191729,267.8250099676337,1599.8299137177642,3399.104790928001,16072.755393603209,1711.565004219333,1354.1332762837956,278.2806277682111,1667.1423300677488,3318.551218902592,16074.294509108498,1699.2700623433325,1366.4092334935403,272.579825695359
1480.0,3208.0,16436.0,1703.0,1371.0,278.0,1519.9556536504563,3188.4217905539667,16296.439118844368,1721.036528191805,1382.0687884144047,295.27381458451924,1710.0488875293224,3187.018067267205,16386.497749184386,1705.390924510575,1376.3944879018752,288.683968201995,1605.5632446320333,3278.113862127597,16401.482386167736,1682.4768695629361,1374.0736241452873,285.20532921997597,1412.1073008311405,3306.3000433762963,16395.824443936977,1713.859157843007,1368.90358143685,275.56549066555107,1367.264990593291,3172.602575948629,16549.25296212272,1683.4503215272746,1372.8101168356652,286.5206815917731,1448.9337576180644,3212.274472406181,16303.290568017528,1681.2417057669397,1376.7472241639273,264.5379940657964,1376.966879289473,3342.4896470989215,16408.19923716655,1722.1593001414856,1377.4195351698252,291.45536145863866,1413.426172284948,3281.862728039273,16367.96253686678,1698.1849219887572,1364.4481250180015,272.38349688381396,1473.5872845568888,3093.4874560676376,16486.870632878716,1699.3480440990297,1385.4901069593743,270.42902915918677,1541.9195731641598,3291.825763012293,16542.108250054054,1696.695717006729,1383.2293818354685,276.4332469838643,1447.7131872367554,3239.8973573537824,16416.809770652464,1699.9825917288401,1371.6488055292086,306.95277045168115
1588.0,3388.0,16384.0,1706.0,1365.0,264.0,1457.1323390418395,3414.769731268754,16304.006727710846,1705.389659050341,1370.8124078028852,274.36459643743086,1762.194249788433,3463.710721052945,16345.86624469338,1710.923889082354,1355.5464393795207,279.2465875189181,1684.7464164907014,3407.11841918937,16542.348192978083,1712.5415525466126,1360.2332790205485,276.5170716372563,1399.4163055801912,3300.6931218633385,16412.596850944028,1693.2913562447577,1387.031960808809,273.0137122575154,1732.4563836136554,3338.4444952098597,16477.159142307988,1717.6185832537924,1364.7969568775318,254.84143725613524,1660.6905471464077,3588.925270010118,16509.369300150793,1694.526844765996,1354.2032148491105,259.1599282471094,1733.7986422002768,3176.7528083678735,16380.7526103382,1721.4922839211652,1372.7767708496876,269.3713653649812,1446.28659642621,3489.171697186032,16344.51745610331,1719.1794020250713,1370.3763998693928,266.2434614600171,1652.997851086761,3400.5380531926153,16464.74709171001,1715.795658551125,1371.9472842229898,267.082083342943,1437.3848627556115,3456.8012438799597,16374.68528232592,1711.0937389461337,1368.3684600612917,267.71131214888806,1628.5721146427038,3157.834458621499,16458.655644510185,1708.9343798223917,1369.2160180420374,277.8692255071367
1480.0,3412.0,16448.0,1745.0,1370.0,270.0,1578.270149827532,3541.9293008788445,16367.468546221859,1735.1264834869473,1370.113279665162,269.26465963744505,1492.9893060595355,3332.119236748208,16346.009881258416,1745.3690239492787,1352.1257468072204,282.7550614533045,1506.777623191377,3495.146323302086,16538.9254655552,1750.9498515673044,1370.0024560929678,275.8702638950682,1418.2091018655199,3320.3244413912794,16309.058415175272,1745.0200433132457,1373.2614513523165,274.39239383338594,1524.9223624716903,3574.398771804066,16486.068310692568,1765.6439584621664,1363.8376526408636,268.6459385964701,1502.0476145515859,3377.064033189743,16470.237167687337,1734.5159739940377,1365.3927432605587,281.2171438809617,1388.537898833881,3390.225127528085,16337.13359709382,1752.2048291611131,1362.2968396886351,282.2252211087012,1416.0224467466016,3257.5364396998675,16336.532697186285,1735.7111273108608,1380.4925748047358,265.38192689252446,1267.2381284527198,3329.392493757325,16416.078912814635,1733.6978800151812,1380.6132541618147,292.54203522892186,1415.9221455485604,3373.8687191396693,16297.131182613564,1754.9780139330421,1374.5743764313586,265.9912867574015,1686.393305800889,3356.728197456834,16402.26554139501,1761.4933475843484,1365.8667447361279,262.96005854848306
1536.0,3288.0,16476.0,1686.0,1358.0,300.0,1375.2524115121266,3238.9791420524634,16534.197657124485,1691.868404754122,1357.3505320886595,298.5968971284717,1643.2577362576403,3365.9229630855602,16471.83061153639,1689.5607554294618,1355.6788478299384,308.8972035388004,1693.9203408305473,3491.967761426489,16416.579539373175,1684.2685672528269,1351.1917831422074,295.7101637198374,1445.9758431854186,3259.3740341024272,16511.215003418187,1679.3765855043011,1350.5716889100918,295.45205040306826,1653.9951878685808,3338.405685764448,16463.10999018224,1683.4952768544404,1361.7625372582506,318.4552099591772,1456.6207558790377,3414.9258888447553,16481.867753050567,1678.6141455945776,1369.9194536961484,328.6999429617922,1300.0008760021349,3414.0793976241766,16371.291879065764,1686.5731901143622,1353.3191927411235,288.86521237065983,1542.144769505137,3165.9601467747434,16435.197315944453,1688.6649644432484,1357.778393826071,285.4727021019615,1693.95053463967,3318.082257087124,16520.10956967065,1681.6974193832286,1360.9800625747498,314.5081695222555,1350.8510057423587,3157.6288498710737,16540.564895908417,1683.9372540592444,1349.825531329092,302.85404208086,1489.5922019808556,3443.305382643667,16549.125403369828,1684.9438642552088,1355.6992749754472,308.505175240087
1548.0,3304.0,16452.0,1790.0,1395.0,295.0,1604.6101018381744,3178.2262723943386,16598.668874317988,1796.5821172383676,1387.7302743087344,298.4333946857695,1738.2177802617798,3321.7359937869132,16408.98927192583,1806.346874969155,1397.8726963395184,295.6969804475783,1397.1963887680915,3172.822995525141,16601.372067619996,1801.297234453904,1397.158651918299,283.14541523801876,1677.3887092949872,3380.816468925344,16327.710571878657,1797.032976631467,1397.0705325989186,303.99086002270167,1624.522690823373,3380.397055226106,16630.34085078792,1781.617394689363,1407.139045154441,284.1664593134956,1483.635456147351,3245.442498504125,16471.410613851796,1790.9878155412143,1396.3736716863957,305.08767781850383,1455.8188165825075,3186.6967961747955,16523.35997591433,1794.9285390273292,1413.3142696894977,302.44353926444757,1430.6601882305122,3278.3426836335684,16348.23234854269,1789.7853958093801,1393.4971249914151,295.892848287951,1417.5119081047867,3349.9409868066828,16590.30156085966,1809.044768711212,1399.807091811119,304.8163304005806,1501.417319913879,3361.4517433628525,16261.463625253024,1780.5302273224825,1389.5179067013935,274.4928001542648,1484.1615739265999,3324.645811576763,16336.783190268192,1799.33097569061,1390.237115099022,285.32694157103083
1468.0,3376.0,16520.0,1784.0,1353.0,291.0,1493.3724113195312,3225.2973815695655,16696.830026826825,1798.2746347110478,1354.393263039531,284.60210449235774,1360.222033065586,3369.702838071622,16385.732217734963,1789.0375440559865,1359.2801222855396,301.1602798977495,1427.9433899095322,3316.392868534522,16615.08838425232,1764.9613446963174,1348.6997989425256,287.03334137934974,1283.6518766918418,3524.7979804900783,16452.24062718289,1796.1089433153065,1342.7752479838202,294.11497310350455,1658.2638078753525,3324.988266716915,16497.91744337468,1795.139668815223,1361.001615496318,297.4940378322767,1217.1271572816722,3317.0856847900354,16553.377436720108,1779.4058870161168,1354.6992285851168,290.6334777176886,1614.0757270514848,3265.981917120103,16428.889830818287,1771.0946555832236,1343.1728840970834,295.30792699499676,1609.9414756105432,3412.8394915399663,16497.41570011821,1779.6255841988611,1342.1923888392816,292.5440034463315,1248.30266735843,3439.7270988130053,16573.3441714641,1778.236289822393,1361.941207145873,294.648862955254,1434.5837233866782,3262.5678597585174,16342.452265362763,1779.215205566327,1373.0165890400203,300.15520316533457,1373.748017561759,3435.7410396477208,16551.26494259605,1789.132132981769,1359.347936598706,281.6773838907809
1488.0,3384.0,16476.0,1755.0,1357.0,277.0,1615.5349927564134,3514.212623559063,16657.461713763707,1754.517570542773,1332.2537774829398,267.74645587353,1538.3426084207324,3510.7409599056195,16442.23268564879,1746.5010415041234,1349.1684513856956,274.08440604943985,1432.1552283344372,3559.5885232985947,16636.45739092808,1750.0177287771517,1349.8984474507497,265.34751925373774,1717.7296590918193,3264.84988065933,16442.001728254167,1760.0986042997706,1360.620808493505,275.9635691531353,1439.328375451646,3189.1818100161545,16482.614404380594,1755.188118004308,1343.3403050790168,286.9786090985681,1442.8412367527906,3381.5243180350103,16418.500882391254,1761.5000048125899,1355.5770772141693,281.9806701913299,1549.146400837235,3288.486855117496,16563.488095204026,1767.8245447039062,1367.0200269592149,286.2331262180398,1576.5284980822844,3537.8554867138805,16442.155832888184,1738.7707311796705,1363.0338473085726,274.93099239280616,1435.773273201247,3365.3858914248613,16553.9690256568,1746.7838695976147,1361.6508296394431,272.292028812679,1565.1205833903325,3409.3186804012944,16276.964108874827,1763.1283724633713,1364.9508765807748,279.0762695276479,1612.5131545423353,3449.3559845954,16401.276795034664,1751.3243020331847,1342.2484976722578,281.60644736615257
