AccX,AccY,AccZ,GyroX,GyroY,GyroZ
8752.0,-2468.0,14384.0,2684.0,3481.0,2076.0
8556.0,-2324.0,14644.0,1338.0,4517.0,2631.0
8344.0,-2696.0,14432.0,-33.0,5472.0,3273.0
8028.0,-3472.0,14156.0,-605.0,6209.0,3759.0
7452.0,-3900.0,14308.0,83.0,7274.0,3808.0
6964.0,-3228.0,15484.0,-303.0,8233.0,3620.0
6480.0,-2524.0,15604.0,-3092.0,8231.0,3787.0
6288.0,-2004.0,16564.0,-6594.0,10178.0,4989.0
5648.0,-3420.0,16672.0,-9644.0,10801.0,4559.0
4944.0,-5072.0,15980.0,-11640.0,9581.0,5608.0
4748.0,-6232.0,14784.0,-11745.0,7240.0,3736.0
4756.0,-7448.0,14444.0,-9681.0,6305.0,2640.0
4336.0,-7972.0,13904.0,-7077.0,5267.0,1419.0
4600.0,-7336.0,14724.0,-4868.0,5245.0,1005.0
3744.0,-7224.0,16220.0,-7050.0,4205.0,1200.0
3564.0,-7484.0,14384.0,-10765.0,2655.0,733.0
4420.0,-9040.0,12908.0,-11112.0,3428.0,1044.0
4384.0,-10976.0,12936.0,-8561.0,5178.0,1520.0
3248.0,-9824.0,13268.0,-6439.0,6217.0,1034.0
2896.0,-8968.0,13616.0,-5791.0,5836.0,1052.0
2348.0,-10128.0,14320.0,-6958.0,3751.0,329.0
2812.0,-10432.0,13004.0,-7225.0,2505.0,-583.0
3444.0,-10660.0,12488.0,-6145.0,2850.0,-506.0
3368.0,-11968.0,12376.0,-4787.0,3356.0,-161.0
2580.0,-11120.0,12748.0,-4668.0,2748.0,-452.0
2424.0,-10712.0,12444.0,-6287.0,992.0,-889.0
3380.0,-11856.0,11436.0,-6969.0,285.0,-1302.0
3452.0,-13108.0,11192.0,-5556.0,800.0,-1062.0
2864.0,-11784.0,11332.0,-4439.0,475.0,-1081.0
3592.0,-12820.0,10304.0,-2741.0,83.0,-1001.0
4144.0,-14012.0,10052.0,932.0,1561.0,-751.0
3820.0,-13344.0,10648.0,5856.0,3319.0,-6.0
4084.0,-13308.0,10084.0,11736.0,5473.0,1021.0
3692.0,-13384.0,10516.0,19066.0,7679.0,1703.0
3104.0,-11064.0,10832.0,25720.0,9471.0,2310.0
1888.0,-9004.0,13856.0,25632.0,9220.0,2282.0
524.0,-6100.0,16912.0,15610.0,5643.0,1161.0
440.0,-5952.0,16628.0,585.0,556.0,-802.0
1704.0,-8132.0,16072.0,-10774.0,-1946.0,-1893.0
1944.0,-8604.0,14876.0,-22969.0,-4287.0,-3204.0
3132.0,-10544.0,11252.0,-26576.0,-4989.0,-3349.0
3404.0,-11928.0,10608.0,-24633.0,-4295.0,-2803.0
3728.0,-13588.0,9292.0,-19109.0,-3294.0,-2331.0
4032.0,-14176.0,8772.0,-13683.0,-1989.0,-1909.0
4212.0,-14812.0,8276.0,-9182.0,-1095.0,-2144.0
4580.0,-14232.0,7464.0,-5130.0,842.0,-1721.0
4728.0,-15504.0,7716.0,-764.0,2745.0,-380.0
4516.0,-15196.0,7976.0,4015.0,4610.0,405.0
4224.0,-14768.0,8140.0,9473.0,5971.0,882.0
3732.0,-13952.0,8888.0,13375.0,6432.0,1144.0
3240.0,-13012.0,9740.0,14626.0,6223.0,1346.0
3036.0,-12580.0,10228.0,14785.0,5569.0,1671.0
3224.0,-12812.0,10692.0,14660.0,5480.0,2117.0
2848.0,-12004.0,11384.0,14163.0,5338.0,2312.0
2184.0,-10844.0,12848.0,11111.0,4444.0,1764.0
1448.0,-9608.0,13376.0,3764.0,1324.0,454.0
2168.0,-10580.0,12956.0,-2780.0,-1006.0,-560.0
2140.0,-10296.0,13388.0,-9713.0,-2949.0,-1107.0
2956.0,-11636.0,11688.0,-13960.0,-3791.0,-1536.0
3228.0,-11820.0,10364.0,-15379.0,-3634.0,-1641.0
2396.0,-11748.0,10432.0,-21381.0,-6413.0,-2641.0
4468.0,-14692.0,7776.0,-18512.0,-5484.0,-3053.0
5060.0,-14788.0,6924.0,-13764.0,-2609.0,-2656.0
5108.0,-15904.0,6676.0,-7825.0,-425.0,-1438.0
4308.0,-14488.0,7188.0,-5195.0,193.0,-585.0
4492.0,-14948.0,6224.0,-4306.0,337.0,-384.0
4868.0,-15872.0,5848.0,-2149.0,770.0,-358.0
5316.0,-16236.0,5332.0,2995.0,2533.0,271.0
5796.0,-17104.0,5024.0,11534.0,5777.0,1749.0
5380.0,-16844.0,6308.0,21486.0,9276.0,2409.0
4364.0,-15516.0,7508.0,30560.0,11814.0,4319.0
2900.0,-11496.0,9064.0,32767.0,12121.0,5051.0
2016.0,-10272.0,11464.0,29283.0,10503.0,5296.0
1620.0,-10180.0,13272.0,22297.0,7995.0,4334.0
1236.0,-9272.0,14584.0,11538.0,4395.0,2291.0
828.0,-8572.0,15020.0,-238.0,614.0,449.0
1036.0,-8056.0,15528.0,-14205.0,-2993.0,-1014.0
1440.0,-10364.0,12964.0,-24361.0,-6674.0,-2055.0
1308.0,-8656.0,11556.0,-32768.0,-9628.0,-2370.0
3072.0,-12396.0,7588.0,-32768.0,-12203.0,-805.0
4796.0,-17560.0,5788.0,-29850.0,-9419.0,-158.0
3536.0,-12672.0,5088.0,-24744.0,-7611.0,1122.0
4232.0,-16724.0,2676.0,-19273.0,-6756.0,3305.0
4036.0,-16576.0,2452.0,-16243.0,-6004.0,2710.0
4208.0,-17464.0,372.0,-14006.0,-4954.0,2457.0
3832.0,-16364.0,2068.0,-12402.0,-4376.0,2301.0
2992.0,-16816.0,448.0,-10690.0,-6046.0,3864.0
4696.0,-18940.0,-1744.0,-7360.0,-4094.0,1819.0
3632.0,-15560.0,-256.0,-4268.0,-1564.0,2647.0
3244.0,-18260.0,156.0,-591.0,-714.0,2931.0
4436.0,-22036.0,32.0,9801.0,1725.0,1125.0
5252.0,-22556.0,-1700.0,25102.0,6632.0,-60.0
5312.0,-23572.0,-1152.0,32767.0,12906.0,-2376.0
3920.0,-17080.0,656.0,32767.0,17963.0,-1665.0
2728.0,-12736.0,4588.0,32767.0,20346.0,108.0
748.0,-11908.0,7488.0,32767.0,16243.0,1415.0
1468.0,-9600.0,9420.0,32767.0,13122.0,1528.0
1056.0,-10052.0,11076.0,32767.0,11839.0,-112.0
240.0,-5348.0,11416.0,32767.0,10284.0,-1251.0
-148.0,-2152.0,13868.0,32767.0,7903.0,-2060.0
-1312.0,2768.0,16704.0,22567.0,3444.0,-2786.0
-1340.0,1440.0,17476.0,6570.0,-1941.0,-2342.0
760.0,-1164.0,15052.0,-3383.0,-3640.0,-2528.0
1288.0,-100.0,14692.0,-11911.0,-2541.0,-245.0
100.0,660.0,17852.0,-27650.0,-4794.0,2022.0
-1124.0,-2692.0,15716.0,-32768.0,-11588.0,3114.0
3760.0,-9788.0,11832.0,-32768.0,-13596.0,3691.0
2764.0,-12396.0,8332.0,-32768.0,-12763.0,4869.0
2944.0,-12204.0,6572.0,-32768.0,-11531.0,5511.0
2580.0,-13796.0,6784.0,-32768.0,-11715.0,6335.0
3940.0,-21840.0,3708.0,-32167.0,-11901.0,6117.0
4408.0,-15780.0,1760.0,-27026.0,-7761.0,3724.0
2640.0,-14720.0,1288.0,-25616.0,-6360.0,4240.0
2620.0,-16204.0,1652.0,-24980.0,-6708.0,4752.0
3836.0,-22188.0,-1236.0,-17407.0,-6266.0,3274.0
4204.0,-19604.0,-1532.0,-8476.0,-671.0,856.0
2444.0,-17996.0,-396.0,-3135.0,1276.0,620.0
2728.0,-19240.0,716.0,2651.0,163.0,302.0
4680.0,-22128.0,-2016.0,13247.0,3392.0,-1012.0
3240.0,-15652.0,-508.0,16318.0,7451.0,-1879.0
1836.0,-17048.0,2796.0,16572.0,5978.0,-1874.0
3648.0,-19364.0,1268.0,23320.0,5386.0,-1864.0
3688.0,-12968.0,1060.0,20652.0,9452.0,-1783.0
0.0,-10064.0,7140.0,10208.0,5268.0,-479.0
1588.0,-13752.0,7152.0,2317.0,-1196.0,1248.0
3300.0,-16428.0,3184.0,858.0,-2651.0,-280.0
4292.0,-15868.0,1504.0,598.0,1200.0,-1169.0
2344.0,-13536.0,4412.0,-1092.0,1813.0,678.0
2804.0,-17164.0,4388.0,-1077.0,128.0,645.0
3520.0,-15900.0,3008.0,-552.0,133.0,36.0
3520.0,-17772.0,2916.0,940.0,1315.0,-93.0
3452.0,-17664.0,3576.0,4776.0,2407.0,-217.0
4144.0,-17972.0,2332.0,9957.0,4644.0,-602.0
3656.0,-16980.0,3252.0,13445.0,6960.0,-854.0
2928.0,-15772.0,4972.0,14719.0,7160.0,-1414.0
2540.0,-11656.0,5932.0,10823.0,4977.0,-880.0
2404.0,-14596.0,6896.0,5795.0,2851.0,35.0
3740.0,-17568.0,6052.0,8170.0,2958.0,-968.0
4772.0,-17300.0,4748.0,14741.0,5798.0,-1087.0
3576.0,-15668.0,6052.0,18801.0,7990.0,-1068.0
1956.0,-11824.0,8740.0,15521.0,6860.0,-264.0
2172.0,-13540.0,9616.0,10465.0,3638.0,-676.0
4176.0,-17552.0,6544.0,15215.0,4475.0,-1707.0
5256.0,-18192.0,6440.0,29302.0,10938.0,-2430.0
860.0,-5164.0,10972.0,28536.0,11955.0,732.0
-232.0,-8388.0,14852.0,15513.0,5131.0,1002.0
2164.0,-11760.0,13196.0,10019.0,1699.0,-421.0
3896.0,-14616.0,10880.0,17168.0,4687.0,-1688.0
2252.0,-8420.0,12868.0,21354.0,6800.0,-130.0
868.0,-8304.0,12988.0,18150.0,5040.0,-165.0
2208.0,-9784.0,14008.0,18888.0,5097.0,-418.0
3368.0,-10816.0,13384.0,27107.0,8969.0,-1388.0
724.0,-3544.0,15460.0,27077.0,9680.0,-884.0
-1128.0,52.0,18720.0,13113.0,5406.0,-127.0
-480.0,-1124.0,17580.0,-5526.0,-827.0,-893.0
-276.0,-944.0,17712.0,-23723.0,-6023.0,-702.0
380.0,-3956.0,15092.0,-32768.0,-10466.0,257.0
1792.0,-5524.0,11288.0,-32768.0,-12828.0,1816.0
1084.0,-13884.0,11688.0,-32768.0,-15676.0,2917.0
4572.0,-17188.0,6676.0,-32768.0,-14359.0,3572.0
4804.0,-13960.0,3652.0,-27560.0,-9274.0,3688.0
3656.0,-13008.0,4924.0,-25754.0,-5125.0,3559.0
3340.0,-18836.0,6460.0,-20663.0,-5434.0,3602.0
4552.0,-16068.0,4880.0,-19670.0,-3704.0,1025.0
1692.0,-11028.0,2628.0,-25995.0,-5481.0,3149.0
3308.0,-17692.0,2228.0,-24539.0,-5217.0,2246.0
5124.0,-22104.0,556.0,-14717.0,-2979.0,2271.0
4816.0,-18584.0,-1584.0,-7558.0,1287.0,1140.0
2212.0,-12724.0,-8.0,-10445.0,1926.0,1415.0
1776.0,-13060.0,1492.0,-17490.0,-789.0,2491.0
3276.0,-19180.0,-2156.0,-16622.0,-3047.0,1890.0
3696.0,-17564.0,-4948.0,-12251.0,-734.0,1288.0
2616.0,-15796.0,-4556.0,-10053.0,1828.0,1307.0
2060.0,-16000.0,-1180.0,-9559.0,1159.0,1574.0
3348.0,-20172.0,-4008.0,-1876.0,1312.0,640.0
5596.0,-25308.0,-6884.0,17200.0,6846.0,-372.0
5328.0,-25600.0,-8344.0,32767.0,16500.0,73.0
6200.0,-22848.0,-9372.0,32767.0,26224.0,-2587.0
2404.0,-12496.0,-3372.0,32767.0,28645.0,-1875.0
532.0,-10740.0,5844.0,32767.0,25412.0,1691.0
1300.0,-11712.0,6128.0,32767.0,23582.0,4218.0
756.0,-4312.0,6376.0,32767.0,24422.0,7495.0
-2996.0,3044.0,14448.0,32767.0,19142.0,8924.0
-4440.0,-852.0,19296.0,29917.0,8743.0,4273.0
-4324.0,-996.0,20732.0,9325.0,-254.0,-1172.0
-1372.0,-1736.0,15484.0,400.0,-4374.0,-3620.0
96.0,-324.0,14748.0,-5191.0,-2820.0,-1848.0
-1312.0,-680.0,16796.0,-17256.0,-3593.0,-345.0
-2004.0,-2764.0,16660.0,-32705.0,-8130.0,-1558.0
-1956.0,-2064.0,16316.0,-32768.0,-15613.0,-2842.0
1040.0,-4896.0,9960.0,-32768.0,-21447.0,-1520.0
996.0,-11356.0,4888.0,-32768.0,-23149.0,1576.0
3044.0,-17520.0,-848.0,-32768.0,-20213.0,2842.0
5208.0,-19156.0,-1916.0,-32768.0,-13764.0,3975.0
3756.0,-18788.0,-176.0,-32768.0,-8997.0,4410.0
2756.0,-16860.0,-2380.0,-32489.0,-7304.0,2602.0
2732.0,-15796.0,-2460.0,-31228.0,-6078.0,320.0
2816.0,-15408.0,-3832.0,-30317.0,-5182.0,-131.0
3084.0,-17648.0,-4044.0,-27172.0,-3985.0,-304.0
3196.0,-18544.0,-7200.0,-20084.0,-1380.0,-506.0
3920.0,-19820.0,-8380.0,-8650.0,1991.0,303.0
2528.0,-16180.0,-7936.0,-2917.0,3310.0,832.0
2192.0,-16968.0,-6248.0,1987.0,3796.0,623.0
3436.0,-20288.0,-7580.0,12081.0,5178.0,-206.0
4336.0,-20268.0,-8444.0,30018.0,10005.0,-15.0
4304.0,-18904.0,-10216.0,32767.0,15762.0,2117.0
3160.0,-13768.0,-5220.0,32767.0,17268.0,-600.0
3012.0,-17160.0,-1232.0,32767.0,15058.0,2490.0
3800.0,-18688.0,-2168.0,32767.0,13887.0,742.0
2236.0,-10772.0,2028.0,32767.0,12957.0,1275.0
328.0,-10836.0,5668.0,28392.0,8097.0,3106.0
740.0,-12600.0,8520.0,19320.0,4256.0,3255.0
1624.0,-14552.0,9080.0,15868.0,1853.0,1017.0
2304.0,-12308.0,8504.0,13770.0,1311.0,-857.0
896.0,-9220.0,8880.0,7397.0,328.0,823.0
1872.0,-13560.0,8800.0,3879.0,210.0,608.0
2316.0,-16232.0,9476.0,7341.0,107.0,-1356.0
3960.0,-16932.0,7600.0,16334.0,2981.0,-695.0
3512.0,-14964.0,7532.0,24385.0,7409.0,-275.0
988.0,-8600.0,12344.0,22217.0,6889.0,2012.0
1816.0,-14032.0,12980.0,19831.0,4123.0,1388.0
4028.0,-16120.0,10864.0,29992.0,8589.0,496.0
976.0,-7144.0,13496.0,32767.0,11173.0,1717.0
-1036.0,-4608.0,16244.0,26839.0,6864.0,2457.0
1008.0,-9068.0,14616.0,23915.0,5216.0,1642.0
1460.0,-7272.0,13552.0,27797.0,7244.0,-580.0
-1088.0,-176.0,15804.0,21960.0,7158.0,-211.0
-2960.0,1368.0,18044.0,5794.0,1385.0,-1377.0
-1076.0,-1800.0,16548.0,-5849.0,-2338.0,-810.0
-636.0,200.0,15092.0,-19124.0,-4398.0,-1071.0
-1944.0,2508.0,16124.0,-32768.0,-9799.0,109.0
-1316.0,-5844.0,14280.0,-32768.0,-18376.0,-775.0
3464.0,-17264.0,8804.0,-32768.0,-20049.0,133.0
6096.0,-21316.0,4140.0,-32768.0,-13521.0,-1055.0
7192.0,-18552.0,2820.0,-13976.0,-3448.0,1618.0
5124.0,-18136.0,6700.0,-2556.0,4194.0,2192.0
360.0,-11520.0,9948.0,-3338.0,1939.0,1677.0
2208.0,-14780.0,8072.0,-6527.0,-2286.0,-74.0
3924.0,-15736.0,6444.0,-4271.0,-1443.0,-105.0
3400.0,-14564.0,6436.0,-1153.0,500.0,158.0
2764.0,-14232.0,7380.0,-3134.0,463.0,1055.0
3568.0,-16240.0,6540.0,-4295.0,-602.0,914.0
4160.0,-18424.0,6060.0,-2.0,1063.0,68.0
2972.0,-13440.0,6932.0,132.0,1707.0,485.0
2020.0,-12296.0,7004.0,-6728.0,-471.0,790.0
2088.0,-13284.0,7332.0,-12800.0,-3353.0,1567.0
3676.0,-18348.0,4656.0,-11452.0,-4059.0,1056.0
3360.0,-15360.0,3632.0,-10100.0,-3568.0,806.0
2856.0,-13668.0,3128.0,-14086.0,-3702.0,1159.0
2456.0,-15200.0,2800.0,-16687.0,-5177.0,1732.0
4108.0,-19448.0,1172.0,-13076.0,-4782.0,903.0
4356.0,-18072.0,-480.0,-7912.0,-1927.0,244.0
3292.0,-16464.0,900.0,-4899.0,-277.0,1010.0
3728.0,-19476.0,1656.0,1026.0,570.0,1016.0
4612.0,-21780.0,-532.0,13667.0,3248.0,525.0
6084.0,-22356.0,-2560.0,29270.0,10587.0,-561.0
4460.0,-19608.0,-640.0,32767.0,17148.0,-1186.0
3448.0,-15924.0,1496.0,32767.0,19448.0,-175.0
2392.0,-13696.0,4984.0,32767.0,19280.0,-336.0
-208.0,-6088.0,9168.0,32767.0,15620.0,954.0
-848.0,-4132.0,13652.0,25490.0,8779.0,1897.0
0.0,-7520.0,15028.0,8566.0,2785.0,261.0
40.0,-6732.0,13164.0,-5854.0,-1863.0,-19.0
-188.0,-5152.0,13300.0,-22690.0,-6085.0,408.0
768.0,-10228.0,11140.0,-32768.0,-10248.0,1926.0
684.0,-9260.0,7376.0,-32768.0,-13938.0,2126.0
1556.0,-13356.0,4772.0,-32768.0,-15857.0,4249.0
3364.0,-20056.0,1512.0,-32768.0,-14465.0,4317.0
4520.0,-16636.0,-1864.0,-32768.0,-10843.0,3932.0
1404.0,-11280.0,-2568.0,-32768.0,-9462.0,4784.0
1464.0,-13712.0,-2212.0,-32768.0,-10227.0,5266.0
2520.0,-18892.0,-4968.0,-32768.0,-10053.0,4783.0
2684.0,-19832.0,-9612.0,-29251.0,-7360.0,3853.0
4176.0,-23360.0,-12284.0,-12609.0,391.0,1586.0
1236.0,-15136.0,-7008.0,-28.0,5286.0,4029.0
988.0,-19676.0,-6500.0,9170.0,4911.0,2597.0
2208.0,-20732.0,-7152.0,17663.0,6571.0,278.0
3016.0,-25376.0,-8420.0,32767.0,10444.0,-2433.0
4024.0,-23404.0,-8616.0,32767.0,19414.0,-3015.0
6352.0,-26228.0,-9900.0,32767.0,28048.0,-885.0
1804.0,-14396.0,-7336.0,32767.0,30649.0,-2763.0
-1084.0,-3596.0,6788.0,32767.0,24931.0,6731.0
-1776.0,-10500.0,9624.0,32767.0,18696.0,8356.0
-40.0,-2880.0,10508.0,32767.0,15225.0,5786.0
-2472.0,-3704.0,15644.0,32767.0,8492.0,1230.0
-4600.0,5644.0,14468.0,32767.0,3205.0,-3336.0
-2856.0,7828.0,15028.0,19848.0,-2299.0,-573.0
-2364.0,656.0,14080.0,11072.0,-2855.0,-2001.0
-1340.0,5612.0,16088.0,6673.0,-1595.0,-512.0
-2464.0,2688.0,17436.0,-646.0,-2228.0,1574.0
-2048.0,6056.0,18852.0,-15641.0,-5879.0,582.0
-2284.0,9220.0,17324.0,-32768.0,-12024.0,2021.0
-2044.0,4368.0,13628.0,-32768.0,-17770.0,6776.0
120.0,-7576.0,8840.0,-32768.0,-21591.0,7257.0
2708.0,-11492.0,4504.0,-32768.0,-22065.0,7145.0
1040.0,-13144.0,-636.0,-32768.0,-21305.0,8976.0
2684.0,-17528.0,-3268.0,-32768.0,-19655.0,9156.0
4224.0,-20788.0,-6132.0,-32768.0,-14707.0,8943.0
3552.0,-18920.0,-8812.0,-32768.0,-8190.0,6950.0
2464.0,-18228.0,-3996.0,-32768.0,-4268.0,6337.0
1812.0,-19900.0,-5692.0,-30888.0,-3032.0,5240.0
3036.0,-20124.0,-9832.0,-16490.0,1300.0,2823.0
1716.0,-20160.0,-7444.0,-2886.0,5392.0,2328.0
1032.0,-19820.0,-7384.0,10452.0,7130.0,292.0
1832.0,-20292.0,-7556.0,21836.0,8167.0,-1488.0
2356.0,-19072.0,-11436.0,32085.0,10755.0,-2772.0
1476.0,-14716.0,-6892.0,32336.0,11502.0,-2284.0
2572.0,-19096.0,-4564.0,30162.0,9594.0,-1622.0
252.0,-8732.0,-2068.0,19330.0,5332.0,-781.0
1756.0,-15880.0,728.0,10780.0,1219.0,2416.0
3460.0,-21556.0,-1972.0,15607.0,3019.0,1319.0
608.0,-9512.0,592.0,9796.0,2886.0,-511.0
1040.0,-14052.0,1936.0,1471.0,-16.0,2422.0
3092.0,-20868.0,-712.0,7444.0,1917.0,-1209.0
3484.0,-16828.0,-860.0,16818.0,5893.0,-1519.0
824.0,-11996.0,1312.0,13594.0,6039.0,-1018.0
736.0,-13476.0,2868.0,5031.0,2544.0,347.0
1972.0,-17540.0,3840.0,3748.0,827.0,-1427.0
3788.0,-20396.0,940.0,8850.0,1299.0,-1593.0
3548.0,-18696.0,732.0,16877.0,5423.0,-1083.0
2004.0,-14924.0,3608.0,17042.0,6913.0,-141.0
844.0,-12208.0,6480.0,8896.0,3478.0,132.0
1584.0,-13048.0,6480.0,925.0,161.0,277.0
3132.0,-17172.0,3224.0,765.0,-594.0,1228.0
5152.0,-23856.0,2032.0,12132.0,5302.0,-295.0
3232.0,-18144.0,3376.0,22381.0,9568.0,43.0
1076.0,-11492.0,6588.0,20132.0,8361.0,1435.0
432.0,-12580.0,8044.0,11163.0,4094.0,1848.0
1032.0,-13272.0,8736.0,6023.0,1734.0,254.0
2356.0,-16004.0,7352.0,8681.0,1686.0,570.0
3240.0,-17112.0,5616.0,18062.0,5789.0,1.0
84.0,-9732.0,9416.0,16024.0,5885.0,805.0
160.0,-11572.0,11812.0,6994.0,1908.0,-351.0
1392.0,-13596.0,10144.0,5652.0,268.0,-1406.0
3428.0,-14376.0,8580.0,8968.0,2430.0,-834.0
2220.0,-14156.0,9076.0,11940.0,5162.0,135.0
128.0,-11828.0,12776.0,10674.0,4932.0,124.0
1696.0,-12552.0,12636.0,4732.0,1677.0,-169.0
3340.0,-18096.0,9040.0,9332.0,3005.0,-746.0
2324.0,-12392.0,9056.0,15818.0,6271.0,259.0
288.0,-9000.0,12884.0,7742.0,4237.0,1894.0
176.0,-11676.0,12780.0,689.0,865.0,779.0
808.0,-9896.0,12064.0,-3296.0,-929.0,605.0
-328.0,-6160.0,12768.0,-17702.0,-5331.0,897.0
-360.0,-10152.0,11424.0,-30560.0,-9655.0,1512.0
2260.0,-14788.0,8384.0,-31706.0,-9870.0,957.0
2972.0,-15192.0,7404.0,-29894.0,-7567.0,933.0
2256.0,-15016.0,5308.0,-26065.0,-6015.0,2281.0
2392.0,-14412.0,3612.0,-25958.0,-4194.0,2671.0
1944.0,-14520.0,2404.0,-30089.0,-3398.0,2254.0
1972.0,-16216.0,2172.0,-31762.0,-3667.0,1404.0
1516.0,-14176.0,-1880.0,-32768.0,-3941.0,1524.0
2424.0,-15872.0,-3896.0,-32768.0,-2840.0,1016.0
3248.0,-18328.0,-6316.0,-29609.0,-136.0,1081.0
3336.0,-19656.0,-6568.0,-20364.0,4249.0,630.0
2304.0,-18844.0,-7304.0,-7939.0,6815.0,847.0
1764.0,-18340.0,-5552.0,4336.0,7291.0,1497.0
1532.0,-14344.0,-6212.0,5690.0,5858.0,1259.0
1896.0,-15516.0,-6076.0,4355.0,4418.0,-387.0
2960.0,-17516.0,-6376.0,9542.0,4879.0,-232.0
4192.0,-21548.0,-6624.0,24287.0,7739.0,1564.0
3904.0,-21028.0,-7324.0,32767.0,11855.0,3643.0
3320.0,-18496.0,-4844.0,32767.0,14488.0,3554.0
2412.0,-15788.0,-1160.0,32767.0,14803.0,4775.0
1376.0,-13456.0,3316.0,32767.0,11676.0,4951.0
540.0,-15456.0,6656.0,32767.0,8504.0,3536.0
1532.0,-20696.0,5732.0,32767.0,8703.0,-222.0
1544.0,-9496.0,4396.0,32767.0,11799.0,849.0
-756.0,-3352.0,10824.0,32767.0,10131.0,7251.0
-1400.0,-12152.0,13916.0,31246.0,6606.0,4249.0
1012.0,-13996.0,12104.0,32767.0,6206.0,1950.0
-956.0,-5392.0,10812.0,32767.0,7578.0,1304.0
-2204.0,436.0,15316.0,23965.0,4500.0,2263.0
-1944.0,-7380.0,18268.0,19824.0,2654.0,1838.0
-404.0,-6356.0,16792.0,22140.0,2288.0,-391.0
-1200.0,-1916.0,17412.0,17778.0,1623.0,-1072.0
-1876.0,-892.0,17468.0,10514.0,-544.0,259.0
36.0,-4576.0,17380.0,7536.0,48.0,-310.0
-720.0,-1552.0,17416.0,3349.0,399.0,-1086.0
-2584.0,2452.0,21292.0,-10304.0,-2782.0,-176.0
-2744.0,3532.0,18132.0,-32768.0,-9568.0,579.0
-2120.0,1036.0,13552.0,-32768.0,-16168.0,1692.0
336.0,-6504.0,9608.0,-32768.0,-20806.0,2916.0
120.0,-13772.0,6936.0,-32768.0,-24225.0,4590.0
3452.0,-20216.0,476.0,-32768.0,-23323.0,5263.0
6360.0,-16252.0,-2600.0,-32768.0,-12556.0,5078.0
2112.0,-15436.0,1192.0,-32063.0,-5828.0,6785.0
2372.0,-19884.0,2556.0,-25757.0,-5581.0,5102.0
2072.0,-16472.0,52.0,-23605.0,-5300.0,2539.0
912.0,-11404.0,-2080.0,-29898.0,-4733.0,1585.0
724.0,-14588.0,120.0,-30730.0,-6764.0,1900.0
2888.0,-19488.0,-5472.0,-26158.0,-7030.0,1643.0
2580.0,-15620.0,-8732.0,-22201.0,-3007.0,681.0
2080.0,-16848.0,-7612.0,-19046.0,1503.0,758.0
1676.0,-17556.0,-5344.0,-12095.0,1184.0,1956.0
2516.0,-17600.0,-9040.0,-5804.0,2427.0,1505.0
1824.0,-15816.0,-8976.0,-2996.0,5486.0,1146.0
484.0,-12208.0,-6496.0,-3806.0,4308.0,1579.0
1996.0,-15072.0,-7976.0,-5419.0,2806.0,2038.0
2076.0,-19256.0,-8292.0,522.0,4119.0,1200.0
2476.0,-16132.0,-8608.0,8065.0,6892.0,328.0
876.0,-13400.0,-5752.0,9460.0,7106.0,1038.0
1244.0,-13332.0,-5528.0,6918.0,4836.0,1390.0
2476.0,-17768.0,-7780.0,10049.0,4884.0,441.0
5048.0,-23092.0,-10508.0,27269.0,11625.0,-506.0
2956.0,-22624.0,-8272.0,32767.0,18532.0,-1824.0
3688.0,-16208.0,-9360.0,32767.0,22535.0,1910.0
2724.0,-12116.0,-2688.0,32767.0,21331.0,1159.0
1644.0,-17324.0,4036.0,32767.0,16692.0,2241.0
1348.0,-14856.0,2056.0,32767.0,16085.0,2070.0
2104.0,-7584.0,7136.0,32767.0,13966.0,5005.0
-532.0,-14796.0,8628.0,32767.0,9554.0,4993.0
1468.0,-12024.0,9344.0,32767.0,10851.0,5911.0
272.0,-7300.0,10472.0,32767.0,12668.0,6234.0
-1520.0,-3420.0,13264.0,32767.0,10470.0,4692.0
-2584.0,-6640.0,15844.0,32767.0,7421.0,4815.0
-1840.0,-4204.0,15344.0,32767.0,6497.0,2063.0
-1744.0,-2076.0,14508.0,31132.0,5279.0,836.0
-3388.0,3080.0,17332.0,23792.0,2713.0,438.0
-3596.0,88.0,18232.0,17386.0,-601.0,796.0
-1800.0,580.0,16224.0,12991.0,-2985.0,-1982.0
-124.0,1100.0,17800.0,8957.0,-1950.0,-2024.0
-1836.0,2516.0,18980.0,4588.0,-1534.0,-1083.0
-2064.0,3016.0,19364.0,-2810.0,-3935.0,-179.0
-792.0,1584.0,17320.0,-11015.0,-6043.0,-89.0
-1580.0,5436.0,17548.0,-23361.0,-6978.0,48.0
-1836.0,3724.0,17456.0,-32768.0,-10854.0,3080.0
80.0,-6364.0,16552.0,-32768.0,-14181.0,4030.0
2024.0,-8268.0,12032.0,-32768.0,-14628.0,3711.0
3344.0,-9692.0,7388.0,-32768.0,-10859.0,5201.0
1292.0,-8932.0,11028.0,-32768.0,-9425.0,6743.0
2312.0,-18392.0,8784.0,-32768.0,-11430.0,7185.0
3312.0,-14804.0,5088.0,-31981.0,-9657.0,5049.0
2524.0,-12676.0,3888.0,-31527.0,-7262.0,5415.0
1480.0,-15424.0,5504.0,-29849.0,-7159.0,7098.0
3040.0,-19416.0,4072.0,-26401.0,-7431.0,5980.0
1932.0,-13480.0,2360.0,-27175.0,-6309.0,4829.0
960.0,-14000.0,-288.0,-29992.0,-5906.0,5242.0
2184.0,-17576.0,-476.0,-27877.0,-5416.0,4995.0
1068.0,-12396.0,-1208.0,-31907.0,-4421.0,4649.0
628.0,-12580.0,-4884.0,-32768.0,-5681.0,4493.0
1852.0,-19424.0,-7532.0,-32768.0,-4058.0,2907.0
2832.0,-22032.0,-6692.0,-20848.0,148.0,3830.0
1596.0,-19924.0,-6376.0,-5679.0,3811.0,2863.0
1804.0,-21800.0,-10072.0,7459.0,6279.0,803.0
1516.0,-19760.0,-8380.0,22650.0,10433.0,-1098.0
1980.0,-23336.0,-9564.0,32767.0,14633.0,-2244.0
3180.0,-27284.0,-11848.0,32767.0,20448.0,-6582.0
-1980.0,-2216.0,-3004.0,32767.0,16491.0,-7775.0
-112.0,-2680.0,6524.0,19957.0,5298.0,-1295.0
4568.0,-25956.0,944.0,21345.0,4323.0,-378.0
3892.0,-21248.0,1592.0,32767.0,11355.0,-6436.0
-1956.0,1200.0,8372.0,15764.0,9321.0,-1144.0
32.0,-16240.0,8316.0,1757.0,-1164.0,2116.0
4892.0,-20740.0,3920.0,7587.0,1643.0,-1718.0
2028.0,-11676.0,4724.0,8135.0,4483.0,-1578.0
556.0,-12180.0,7640.0,2407.0,1998.0,522.0
3128.0,-17236.0,5256.0,4513.0,1251.0,-93.0
4760.0,-20292.0,3804.0,13257.0,4871.0,-2226.0
2532.0,-13816.0,6248.0,16717.0,7341.0,-1630.0
28.0,-10432.0,10336.0,8890.0,3432.0,-207.0
2592.0,-15696.0,9220.0,3747.0,-136.0,-337.0
3824.0,-15684.0,6764.0,4664.0,682.0,-277.0
4336.0,-18240.0,7036.0,11227.0,4585.0,-668.0
2408.0,-12972.0,8652.0,14014.0,6310.0,192.0
748.0,-10040.0,9740.0,7328.0,3398.0,1240.0
3300.0,-16864.0,8992.0,9284.0,3825.0,345.0
3468.0,-15800.0,8612.0,17624.0,7006.0,136.0
992.0,-9440.0,11180.0,16721.0,7403.0,152.0
-544.0,-7872.0,13672.0,6146.0,3066.0,918.0
1560.0,-13956.0,12648.0,3407.0,232.0,582.0
4864.0,-18248.0,8168.0,12921.0,4075.0,-85.0
2148.0,-10448.0,10492.0,19058.0,8268.0,-388.0
-996.0,-8116.0,15160.0,13096.0,5175.0,1108.0
1004.0,-10496.0,13872.0,8096.0,2245.0,1001.0
1904.0,-12344.0,12108.0,8756.0,2027.0,-162.0
2056.0,-10548.0,12084.0,12134.0,4119.0,-64.0
876.0,-8972.0,13792.0,12050.0,4250.0,459.0
764.0,-9464.0,14536.0,9966.0,3066.0,759.0
2184.0,-12380.0,13004.0,14688.0,4081.0,287.0
1056.0,-7660.0,13884.0,17308.0,6057.0,-146.0
-872.0,-3832.0,14828.0,9326.0,4345.0,493.0
-832.0,-3836.0,16252.0,-2683.0,981.0,1024.0
-424.0,-7668.0,16464.0,-10648.0,-3140.0,617.0
900.0,-7584.0,15900.0,-15935.0,-4734.0,-383.0
-1448.0,-3408.0,14424.0,-28918.0,-9989.0,983.0
2252.0,-12532.0,12408.0,-29378.0,-10516.0,1768.0
4132.0,-17844.0,9396.0,-18158.0,-6880.0,2040.0
3584.0,-14408.0,9268.0,-9347.0,-2374.0,-886.0
688.0,-6636.0,10728.0,-15251.0,-2461.0,683.0
1636.0,-11976.0,9956.0,-23807.0,-5012.0,1244.0
3472.0,-17752.0,7856.0,-20630.0,-4647.0,1025.0
2644.0,-13904.0,6600.0,-19028.0,-3267.0,199.0
2224.0,-11764.0,6732.0,-24543.0,-3682.0,1877.0
2072.0,-14020.0,6232.0,-27636.0,-5617.0,3277.0
3512.0,-19316.0,2616.0,-24652.0,-5444.0,3312.0
1916.0,-13320.0,1608.0,-28635.0,-5745.0,1508.0
2532.0,-13212.0,-2580.0,-32768.0,-5759.0,1862.0
2672.0,-14312.0,-1672.0,-32768.0,-4670.0,2174.0
2448.0,-16844.0,-4176.0,-32768.0,-4892.0,1753.0
3076.0,-17668.0,-7464.0,-32711.0,-2768.0,825.0
2696.0,-17260.0,-8052.0,-25692.0,-4.0,322.0
3072.0,-18172.0,-8116.0,-16253.0,2077.0,213.0
2212.0,-16384.0,-9740.0,-6186.0,3139.0,1432.0
2068.0,-15052.0,-10344.0,-1559.0,3294.0,1771.0
1548.0,-14004.0,-9840.0,-577.0,1731.0,1390.0
2076.0,-16084.0,-8320.0,3419.0,1222.0,1055.0
2672.0,-18412.0,-9452.0,13971.0,2404.0,2063.0
3364.0,-19068.0,-9724.0,26437.0,5819.0,2096.0
2104.0,-17200.0,-8316.0,32767.0,8752.0,1000.0
3712.0,-16968.0,-8328.0,32767.0,10489.0,4541.0
2908.0,-14708.0,-5860.0,32767.0,11380.0,3132.0
1500.0,-15260.0,884.0,32767.0,8113.0,4240.0
1380.0,-17880.0,564.0,32767.0,5641.0,3465.0
2040.0,-13656.0,1172.0,29910.0,5550.0,3200.0
288.0,-12976.0,5268.0,23182.0,4016.0,2620.0
1336.0,-14136.0,5628.0,21613.0,3312.0,1952.0
1312.0,-14688.0,6184.0,21712.0,4470.0,1404.0
324.0,-14208.0,7764.0,23333.0,4682.0,1001.0
884.0,-12608.0,7876.0,25907.0,5389.0,1236.0
1304.0,-14856.0,7976.0,31667.0,7743.0,1494.0
-4.0,-9504.0,10984.0,30863.0,8205.0,868.0
-1716.0,-8116.0,12388.0,22578.0,4239.0,1230.0
-416.0,-9940.0,13740.0,14312.0,1504.0,281.0
1424.0,-13516.0,11900.0,16247.0,2341.0,58.0
1352.0,-11800.0,12892.0,23639.0,5462.0,874.0
560.0,-10456.0,14232.0,27468.0,6403.0,2184.0
-416.0,-9460.0,14940.0,28732.0,6567.0,1656.0
408.0,-7476.0,14268.0,31777.0,7822.0,1406.0
24.0,-7184.0,15800.0,32767.0,9088.0,986.0
-2848.0,972.0,16336.0,28952.0,6632.0,445.0
-3504.0,1932.0,18708.0,14094.0,1420.0,-205.0
-912.0,-4588.0,17012.0,11663.0,635.0,-1438.0
1520.0,-5740.0,16060.0,20567.0,3780.0,23.0
-2564.0,2000.0,17740.0,17556.0,3507.0,-273.0
-2772.0,2808.0,17100.0,7743.0,946.0,-165.0
-1332.0,804.0,16432.0,2691.0,894.0,-407.0
-1856.0,2304.0,17956.0,-3869.0,489.0,-9.0
-2208.0,3392.0,19672.0,-17417.0,-2819.0,481.0
-2852.0,4548.0,18044.0,-32768.0,-8467.0,785.0
-3284.0,2408.0,13836.0,-32768.0,-14820.0,2924.0
96.0,-6988.0,10464.0,-32768.0,-16987.0,868.0
2060.0,-17160.0,8404.0,-32768.0,-15869.0,3259.0
5760.0,-27336.0,6368.0,-22705.0,-7951.0,867.0
6180.0,-20956.0,4524.0,12181.0,5400.0,1038.0
3328.0,-18556.0,8260.0,32767.0,14509.0,2367.0
-2188.0,-6796.0,11108.0,32767.0,13237.0,1960.0
-2992.0,552.0,14460.0,27837.0,6453.0,-6.0
-3136.0,-2228.0,17116.0,10229.0,-204.0,-296.0
3524.0,-16648.0,11580.0,17873.0,2991.0,-1584.0
320.0,-5196.0,14684.0,25698.0,7001.0,327.0
-3496.0,2684.0,19208.0,7519.0,1500.0,326.0
-1476.0,-2332.0,18300.0,-12365.0,-5091.0,-821.0
1840.0,-6220.0,16120.0,-17637.0,-5381.0,74.0
-156.0,-6464.0,18776.0,-20840.0,-5207.0,45.0
4364.0,-19700.0,12696.0,-7665.0,-2416.0,-313.0
2748.0,-9764.0,12940.0,7681.0,3907.0,-429.0
-1160.0,-1552.0,16680.0,-3507.0,1375.0,1599.0
-188.0,-8184.0,15888.0,-15361.0,-2896.0,945.0
1652.0,-10196.0,14220.0,-15889.0,-3519.0,563.0
1704.0,-13572.0,11744.0,-10753.0,-2625.0,1374.0
3380.0,-14112.0,10496.0,-729.0,1366.0,140.0
868.0,-8204.0,12696.0,1874.0,3964.0,889.0
-1080.0,-6080.0,14640.0,-9269.0,-377.0,1982.0
352.0,-14920.0,12060.0,-10693.0,-3315.0,637.0
4504.0,-17500.0,10044.0,1968.0,1573.0,-221.0
1336.0,-9244.0,11128.0,6974.0,4996.0,443.0
-264.0,-9064.0,13220.0,1871.0,2506.0,1701.0
3144.0,-19140.0,11344.0,9671.0,3617.0,528.0
2412.0,-13628.0,11764.0,21568.0,7312.0,-749.0
-1756.0,-2836.0,13224.0,14576.0,5434.0,1352.0
-1044.0,-5596.0,13952.0,-478.0,1502.0,807.0
-236.0,-5540.0,15148.0,-12718.0,-1473.0,-836.0
-1012.0,-4836.0,15280.0,-28496.0,-5561.0,-1089.0
260.0,-9784.0,13312.0,-32768.0,-9682.0,184.0
6440.0,-26620.0,7448.0,-17031.0,-4427.0,-643.0
5240.0,-19604.0,7400.0,4814.0,4681.0,-490.0
400.0,-12292.0,9804.0,11689.0,6361.0,1112.0
208.0,-8868.0,11748.0,4615.0,4496.0,807.0
260.0,-12472.0,10640.0,-2732.0,419.0,986.0
1472.0,-13668.0,10088.0,-3047.0,575.0,-158.0
1220.0,-13108.0,9896.0,-4282.0,-48.0,793.0
1388.0,-13592.0,10012.0,-2173.0,-112.0,93.0
4340.0,-21600.0,5664.0,12316.0,3618.0,1187.0
4348.0,-19056.0,6840.0,30512.0,12120.0,-52.0
-1368.0,-10120.0,10304.0,32767.0,13299.0,2080.0
-568.0,-7564.0,13124.0,32767.0,12214.0,2588.0
880.0,-7800.0,12676.0,32767.0,12564.0,1590.0
-5984.0,4184.0,18840.0,13531.0,4455.0,1284.0
-1180.0,-6740.0,16612.0,-8003.0,-3371.0,-669.0
376.0,-7104.0,14116.0,-11919.0,-4226.0,-1148.0
-360.0,-6016.0,15056.0,-18196.0,-3556.0,-1131.0
-1256.0,-2720.0,15904.0,-32768.0,-7343.0,-1190.0
-836.0,-8588.0,13720.0,-32768.0,-12379.0,-2459.0
1376.0,-12532.0,9352.0,-32768.0,-14502.0,-2865.0
4184.0,-18900.0,3464.0,-31129.0,-9975.0,-994.0
7704.0,-28608.0,3492.0,-4720.0,1067.0,804.0
3992.0,-20788.0,4356.0,18340.0,9128.0,30.0
-28.0,-6764.0,10052.0,10941.0,9242.0,1354.0
-3456.0,-7164.0,12348.0,-11379.0,-2647.0,2744.0
2080.0,-16904.0,7352.0,-16956.0,-6804.0,579.0
3036.0,-13984.0,6568.0,-15774.0,-4154.0,-292.0
612.0,-11556.0,6824.0,-20818.0,-4574.0,668.0
1136.0,-15544.0,6288.0,-22300.0,-7075.0,912.0
4260.0,-19164.0,2536.0,-15899.0,-5278.0,104.0
3712.0,-17592.0,1872.0,-11121.0,-97.0,-198.0
1600.0,-14948.0,2732.0,-11248.0,910.0,778.0
1768.0,-16320.0,2440.0,-12355.0,-444.0,946.0
2668.0,-18184.0,292.0,-10237.0,-852.0,344.0
2484.0,-16016.0,-880.0,-8474.0,866.0,456.0
1088.0,-11628.0,312.0,-15967.0,453.0,1272.0
1308.0,-15876.0,384.0,-20395.0,-2198.0,-64.0
2272.0,-17732.0,-2000.0,-18365.0,-3434.0,-1116.0
2068.0,-14512.0,-3600.0,-17347.0,-2964.0,-664.0
2864.0,-19580.0,-4888.0,-9821.0,-1312.0,-546.0
3100.0,-18452.0,-6288.0,49.0,1256.0,-166.0
2168.0,-13052.0,-5816.0,42.0,3347.0,385.0
1328.0,-12412.0,-4916.0,-8149.0,1727.0,781.0
1608.0,-16896.0,-4868.0,-11526.0,-1892.0,-52.0
2180.0,-17044.0,-6080.0,-10378.0,-3488.0,-978.0
2492.0,-13024.0,-7632.0,-12185.0,-3243.0,-261.0
2440.0,-15276.0,-6620.0,-11861.0,-2176.0,511.0
2836.0,-18840.0,-8148.0,-3644.0,-243.0,914.0
2208.0,-12996.0,-8556.0,-1895.0,1934.0,1167.0
1252.0,-12576.0,-8324.0,-5244.0,1697.0,1503.0
2120.0,-14788.0,-9436.0,-4459.0,1715.0,1010.0
2472.0,-13764.0,-9208.0,-2371.0,3787.0,1266.0
1432.0,-12820.0,-8528.0,-5129.0,3594.0,998.0
1820.0,-14856.0,-7204.0,-4777.0,2877.0,25.0
2732.0,-18884.0,-8096.0,5561.0,3461.0,67.0
2816.0,-16596.0,-9352.0,17457.0,6600.0,1578.0
2524.0,-14544.0,-8892.0,25699.0,9506.0,2381.0
2980.0,-17272.0,-8540.0,31356.0,10128.0,3478.0
996.0,-12648.0,-4856.0,24200.0,7032.0,1290.0
1080.0,-9404.0,-2980.0,6176.0,-100.0,1481.0
2056.0,-19988.0,-4788.0,5493.0,-2333.0,-418.0
2536.0,-14228.0,-6300.0,6882.0,-1666.0,-248.0
1708.0,-11748.0,-1892.0,-149.0,-106.0,1172.0
1128.0,-14640.0,-2340.0,-7148.0,-2896.0,108.0
2592.0,-16660.0,-4556.0,-6587.0,-2946.0,-1218.0
2380.0,-13964.0,-5048.0,-4084.0,-204.0,-810.0
3376.0,-19672.0,-4572.0,4749.0,3465.0,-550.0
2960.0,-18268.0,-6536.0,15474.0,6729.0,-107.0
2840.0,-16240.0,-6180.0,19888.0,8554.0,234.0
3228.0,-18376.0,-5288.0,23686.0,9066.0,1088.0
3612.0,-20500.0,-3784.0,31858.0,9360.0,2264.0
1156.0,-10696.0,-2196.0,22330.0,6744.0,2459.0
2352.0,-15528.0,2268.0,8457.0,2202.0,3218.0
1000.0,-16800.0,2356.0,5198.0,-670.0,141.0
1648.0,-13104.0,2552.0,922.0,-2218.0,-37.0
1496.0,-13440.0,2280.0,-3937.0,-2255.0,868.0
1304.0,-14304.0,1840.0,-9483.0,-2220.0,-957.0
1676.0,-13308.0,1240.0,-13512.0,-2487.0,-1889.0
1580.0,-12808.0,348.0,-18997.0,-2815.0,-2978.0
2420.0,-16440.0,-1632.0,-18832.0,-3228.0,-3109.0
3200.0,-14244.0,-4172.0,-19329.0,-2218.0,-3562.0
2576.0,-13784.0,-4808.0,-21718.0,-3358.0,-2188.0
4072.0,-21708.0,-8848.0,-12498.0,-3284.0,-1757.0
6872.0,-23172.0,-12908.0,8104.0,5123.0,-865.0
3668.0,-16764.0,-8496.0,20075.0,11492.0,-168.0
3636.0,-17128.0,-7992.0,23768.0,11253.0,3209.0
3776.0,-17980.0,-4104.0,25991.0,11582.0,2406.0
1224.0,-11764.0,-1480.0,16440.0,5637.0,3763.0
892.0,-12476.0,516.0,1281.0,-1040.0,2504.0
3340.0,-19348.0,-1288.0,220.0,-2822.0,1452.0
7556.0,-23184.0,-6804.0,18447.0,4985.0,912.0
5008.0,-19536.0,-3876.0,32767.0,14235.0,3879.0
1164.0,-14720.0,316.0,32767.0,16892.0,6387.0
-1848.0,-3544.0,7044.0,22274.0,7464.0,4766.0
-1160.0,-11220.0,8172.0,-1581.0,-1914.0,1147.0
3108.0,-20596.0,5108.0,216.0,-1993.0,-1756.0
6332.0,-20700.0,-2492.0,20258.0,5611.0,-806.0
4536.0,-19872.0,864.0,32767.0,16511.0,3137.0
-1624.0,-8296.0,7620.0,32767.0,15106.0,5223.0
-3256.0,-6356.0,15048.0,11844.0,3157.0,3521.0
480.0,-14040.0,10720.0,-7683.0,-4645.0,-2025.0
3356.0,-19556.0,6528.0,314.0,-2851.0,-2852.0
6704.0,-20448.0,2880.0,21698.0,8043.0,1633.0
256.0,-11728.0,10300.0,32767.0,12707.0,7373.0
-2632.0,-6636.0,15796.0,15782.0,5218.0,5576.0
-2784.0,-7164.0,14556.0,-13798.0,-6043.0,-658.0
1308.0,-12192.0,9004.0,-23467.0,-8428.0,-3457.0
2396.0,-16688.0,6436.0,-10892.0,-3555.0,-2470.0
1964.0,-11364.0,9708.0,-1935.0,688.0,-599.0
-3892.0,3684.0,16308.0,-31006.0,-7609.0,2854.0
-4812.0,-11928.0,8200.0,-32768.0,-22638.0,1289.0
3192.0,-21476.0,-1400.0,-32768.0,-26204.0,-5329.0
11508.0,-23116.0,-9148.0,-26972.0,-7338.0,-1105.0
6752.0,-29716.0,-5836.0,4093.0,9741.0,2312.0
316.0,-14212.0,2072.0,18870.0,12112.0,809.0
460.0,-11320.0,2752.0,5630.0,4300.0,4194.0
1068.0,-17472.0,-2640.0,-1383.0,-2075.0,-33.0
10020.0,-32492.0,-12460.0,23740.0,9391.0,39.0
5316.0,-28016.0,-192.0,32767.0,24789.0,1080.0
-3680.0,-1268.0,6832.0,32767.0,22004.0,8757.0
-5216.0,3908.0,15056.0,26549.0,5798.0,10526.0
-2100.0,-8868.0,11388.0,-9343.0,-5036.0,784.0
3660.0,-22628.0,5656.0,5691.0,-69.0,-3901.0
6868.0,-25056.0,4228.0,32767.0,14710.0,1366.0
-1084.0,-1220.0,10956.0,32767.0,18349.0,9316.0
-7348.0,-548.0,17624.0,29951.0,7443.0,5838.0
-4728.0,1456.0,18216.0,-13451.0,-6725.0,-2238.0
1136.0,-16848.0,10272.0,-12919.0,-6617.0,-6794.0
9608.0,-27268.0,9028.0,32767.0,10078.0,1487.0
-708.0,-5684.0,12624.0,32767.0,16924.0,7810.0
-6724.0,-596.0,17268.0,32767.0,10572.0,8426.0
-4172.0,424.0,18580.0,16568.0,2565.0,-492.0
-292.0,-4088.0,14456.0,10471.0,-13.0,-3066.0
628.0,-7000.0,13576.0,19353.0,3545.0,-281.0
-3172.0,2336.0,18304.0,18290.0,4622.0,2093.0
-4116.0,-184.0,18660.0,3633.0,-107.0,-357.0
-1932.0,-4008.0,18624.0,3041.0,-1611.0,-1297.0
-72.0,-2604.0,16900.0,9490.0,913.0,-671.0
-3548.0,7160.0,20520.0,-8304.0,-2394.0,606.0
-3700.0,2884.0,18696.0,-32768.0,-11368.0,-2167.0
-2000.0,-1708.0,14816.0,-32768.0,-15249.0,-972.0
-656.0,-3044.0,11668.0,-32768.0,-17999.0,673.0
592.0,-13796.0,5992.0,-32768.0,-16290.0,3382.0
8036.0,-31268.0,8504.0,-17151.0,-4943.0,455.0
2780.0,-7864.0,11760.0,1050.0,1726.0,712.0
-960.0,-5276.0,13328.0,-13642.0,-2596.0,5024.0
-2468.0,-8148.0,11888.0,-28211.0,-9818.0,4561.0
932.0,-14272.0,8744.0,-32768.0,-12139.0,1664.0
1184.0,-11540.0,6320.0,-29545.0,-11418.0,1085.0
7784.0,-31488.0,96.0,-1349.0,-2719.0,3191.0
6892.0,-26120.0,2824.0,32767.0,15160.0,-2232.0
-196.0,-11536.0,6712.0,32767.0,18242.0,-114.0
288.0,-10800.0,9064.0,32767.0,17416.0,554.0
-1136.0,-4320.0,10600.0,32767.0,15963.0,1154.0
180.0,-11156.0,12816.0,32767.0,13494.0,1187.0
-840.0,-3484.0,16080.0,32767.0,11817.0,1805.0
-3844.0,-2076.0,17044.0,27874.0,6778.0,1347.0
-2788.0,3792.0,18104.0,6868.0,187.0,-486.0
-2768.0,636.0,17792.0,-12665.0,-4813.0,-1017.0
-1704.0,-156.0,16088.0,-26888.0,-8051.0,-952.0
-812.0,-4596.0,15700.0,-32768.0,-9759.0,-610.0
-792.0,-3176.0,16376.0,-32768.0,-13671.0,-526.0
580.0,-7620.0,12028.0,-32768.0,-16361.0,-1302.0
2916.0,-17364.0,5512.0,-32768.0,-14746.0,909.0
8728.0,-32768.0,3280.0,-11696.0,-2522.0,1011.0
8572.0,-28136.0,2696.0,30430.0,15377.0,-814.0
-2452.0,-4784.0,10340.0,32767.0,17391.0,1919.0
2752.0,-20552.0,7128.0,32767.0,17185.0,1342.0
-2076.0,492.0,13844.0,32767.0,14662.0,1833.0
-2596.0,-4140.0,15384.0,22815.0,6136.0,1871.0
-1816.0,-6736.0,15796.0,13977.0,2715.0,676.0
1104.0,-8140.0,13712.0,15768.0,3761.0,238.0
-4204.0,3712.0,17592.0,-2699.0,-1268.0,603.0
-1160.0,-5264.0,15072.0,-20589.0,-7284.0,505.0
1100.0,-10256.0,14728.0,-18421.0,-6293.0,-417.0
-1560.0,-816.0,16476.0,-29647.0,-9520.0,-31.0
1156.0,-12924.0,12596.0,-32768.0,-11404.0,-1032.0
4192.0,-15716.0,10892.0,-22776.0,-6413.0,-773.0
32.0,-680.0,13764.0,-32768.0,-5172.0,-394.0
-172.0,-15364.0,9648.0,-32768.0,-12183.0,2836.0
5600.0,-28028.0,3160.0,-23748.0,-11417.0,-307.0
6192.0,-10336.0,4520.0,-17355.0,926.0,42.0
-304.0,-11532.0,6236.0,-25752.0,-198.0,4376.0
504.0,-13584.0,3220.0,-31753.0,-5377.0,1326.0
3968.0,-22620.0,-1132.0,-24514.0,-6209.0,25.0
3752.0,-19136.0,-368.0,-14872.0,-2151.0,217.0
1396.0,-9996.0,-636.0,-21039.0,-1054.0,1076.0
1760.0,-17600.0,-3712.0,-24460.0,-2792.0,1340.0
1532.0,-18540.0,-3032.0,-17826.0,-5017.0,172.0
2148.0,-13528.0,-2144.0,-18299.0,-6743.0,163.0
1932.0,-13644.0,-4408.0,-21521.0,-6376.0,1346.0
2852.0,-21640.0,-6056.0,-15008.0,-5990.0,1412.0
3124.0,-16324.0,-6872.0,-7928.0,-3136.0,1328.0
3560.0,-20372.0,-6176.0,1394.0,1074.0,1263.0
3452.0,-20576.0,-7000.0,15764.0,6951.0,425.0
1540.0,-10140.0,-6536.0,14988.0,10240.0,1211.0
-324.0,-9312.0,-2740.0,1758.0,6998.0,1115.0
792.0,-17772.0,-4552.0,-3526.0,522.0,-444.0
3224.0,-19500.0,-7820.0,2081.0,-874.0,-1147.0
3316.0,-16692.0,-7804.0,7230.0,3056.0,126.0
2532.0,-17380.0,-5432.0,10418.0,5919.0,879.0
1624.0,-14876.0,-2996.0,11348.0,5247.0,1469.0
1280.0,-11700.0,-2820.0,3100.0,2746.0,612.0
1872.0,-15244.0,-3292.0,-4678.0,189.0,1011.0
2652.0,-20668.0,-4224.0,-594.0,413.0,175.0
4736.0,-22392.0,-6920.0,13912.0,3651.0,939.0
3700.0,-17784.0,-6272.0,26063.0,11066.0,907.0
-392.0,-6208.0,964.0,17666.0,12222.0,907.0
-488.0,-12556.0,1412.0,2244.0,2877.0,2592.0
1612.0,-16884.0,-1816.0,-1415.0,-852.0,-751.0
2032.0,-12976.0,-1216.0,-4404.0,-223.0,-553.0
1488.0,-16404.0,-1592.0,-5681.0,-1014.0,205.0
3844.0,-21684.0,-3540.0,3048.0,1198.0,-810.0
3260.0,-17924.0,-4520.0,12973.0,5228.0,-136.0
1872.0,-12744.0,-1168.0,8277.0,5593.0,751.0
1232.0,-13772.0,520.0,-1402.0,1280.0,905.0
3824.0,-22872.0,-3600.0,2558.0,328.0,-172.0
