IMU1_AccX,IMU1_AccY,IMU1_AccZ,IMU1_GyroX,IMU1_GyroY,IMU1_GyroZ,IMU2_AccX,IMU2_AccY,IMU2_AccZ,IMU2_GyroX,IMU2_GyroY,IMU2_GyroZ,IMU3_AccX,IMU3_AccY,IMU3_AccZ,IMU3_GyroX,IMU3_GyroY,IMU3_GyroZ,IMU4_AccX,IMU4_AccY,IMU4_AccZ,IMU4_GyroX,IMU4_GyroY,IMU4_GyroZ,IMU5_AccX,IMU5_AccY,IMU5_AccZ,IMU5_GyroX,IMU5_GyroY,IMU5_GyroZ,IMU6_AccX,IMU6_AccY,IMU6_AccZ,IMU6_GyroX,IMU6_GyroY,IMU6_GyroZ,IMU7_AccX,IMU7_AccY,IMU7_AccZ,IMU7_GyroX,IMU7_GyroY,IMU7_GyroZ,IMU8_AccX,IMU8_AccY,IMU8_AccZ,IMU8_GyroX,IMU8_GyroY,IMU8_GyroZ,IMU9_AccX,IMU9_AccY,IMU9_AccZ,IMU9_GyroX,IMU9_GyroY,IMU9_GyroZ,IMU10_AccX,IMU10_AccY,IMU10_AccZ,IMU10_GyroX,IMU10_GyroY,IMU10_GyroZ,IMU11_AccX,IMU11_AccY,IMU11_AccZ,IMU11_GyroX,IMU11_GyroY,IMU11_GyroZ,IMU12_AccX,IMU12_AccY,IMU12_AccZ,IMU12_GyroX,IMU12_GyroY,IMU12_GyroZ
15332.0,-1164.0,3388.0,-28049.0,3032.0,-660.0,15977.059066862186,-1365.1133868813963,4293.696137966474,-28032.803554700826,3033.716335982475,-643.9021811621432,15392.385662249679,-670.6493463097588,2595.1762160282988,-28037.87083604823,3024.7892016710643,-672.4309431869659,15895.525755205397,-715.7884386318868,4095.62878392928,-28036.5226047592,3038.3214640759115,-655.9013787834783,15430.140456531077,-955.3792593812743,3917.126914596589,-28049.568402466863,3052.159814100154,-667.7174458995405,15319.621867781405,-848.5583262252198,3163.9360058562843,-28038.367092176293,3026.844748624771,-667.7651252043541,14931.451541530658,-947.4356496501051,3399.1291026796152,-28064.956454257826,3021.638031695108,-668.1876354140591,15750.524227332573,-563.6710942037452,3464.751775542357,-28050.10251278029,3048.3487131920665,-657.1588879330386,14925.535302070963,-179.77727005820861,2977.91398446484,-28039.162642138046,3049.291864642509,-655.4061738400644,14959.908549116824,-1296.0715897592377,4383.1406692245255,-28062.565842286636,3034.9704421915467,-657.3482638262985,15315.495735158287,-1431.704295423281,3514.292933296402,-28033.487918876486,3031.3098687693955,-660.3536455228764,15398.600919260292,-1765.383346227794,2884.159113805545,-28063.91017859566,3025.7632170065076,-642.6479354515496
15788.0,-2324.0,2696.0,-25787.0,3904.0,-2386.0,15366.656569587669,-2289.972958788922,3322.750614581329,-25787.319775613585,3904.415643400521,-2393.179026714619,15937.95431551887,-1640.606032217914,2776.067352193775,-25787.067184818683,3904.4218578905597,-2391.9398452479336,15258.733759283576,-1987.6709217737966,2699.849571282775,-25759.69693368065,3890.215754919742,-2397.624147129333,15346.440827287717,-2725.7579627544983,2966.054835365053,-25790.20405736669,3890.0733535621043,-2380.5308045491693,15808.02069262475,-1405.5256071715462,2994.9777038911425,-25771.751952961426,3890.110754899877,-2397.1494365653593,16460.090021237706,-2611.4501778015615,3100.266094846628,-25792.95166833412,3910.63760423283,-2375.5441709730344,16098.059867989357,-2708.8767785090195,2409.620103694609,-25792.345642212153,3896.7371255539065,-2371.703556509857,15127.61402200228,-1747.3625869979726,2976.9753294702214,-25783.749212414335,3900.6471858177824,-2389.627964625432,15899.617905050907,-2754.512729849322,2561.6627184487184,-25780.474336214003,3927.5229750785684,-2377.1379054698373,14893.979272771947,-2189.148889689469,3732.9198030059724,-25779.435062723493,3906.291742455291,-2386.1041676811137,15330.979660136765,-2406.8517678405765,2321.032737387861,-25800.605575519916,3896.578153409392,-2392.0267324999686
15908.0,-4280.0,2508.0,-20042.0,4905.0,-2821.0,16348.518209149799,-4306.725184573347,2159.2833456262765,-20029.98878490143,4898.303794950466,-2824.679061917139,14498.117705660454,-4174.860667271806,2520.124426813869,-20047.96699735191,4910.312337667866,-2826.814138706827,16455.845293439997,-4927.250041296533,2447.899221381115,-20048.172025054675,4902.692502895229,-2836.437918726307,16493.57035942934,-4167.947785891376,2844.7694803000268,-20044.629840865055,4908.78571214838,-2826.560627969183,15230.664669596561,-3954.623967340633,2545.3857023314663,-20053.878155375736,4916.261419682929,-2827.475735970892,16456.381855915835,-4338.082085008641,3405.8616516847273,-20034.097712434632,4902.075153333666,-2827.344938206389,15549.797883278112,-4098.361921743932,2227.0508098767596,-20031.106655378146,4906.871462151742,-2819.931143284528,15640.730248150783,-4332.1766865579,2940.6974783847454,-20044.05396901452,4896.069200785772,-2820.6860410325294,16024.566362354806,-4054.8124517795204,2709.5696641561685,-20045.85758427022,4907.985335654701,-2817.669268442624,15043.932847047017,-4509.285677234261,2337.3795626518736,-20038.84729863742,4911.528000632905,-2802.9945855731057,15335.624719671116,-4229.554984316021,3041.375040190047,-20047.136065245984,4910.58974347807,-2820.4759735867037
15960.0,-4340.0,2852.0,-13298.0,5567.0,-3052.0,15566.457250296842,-5237.545035060604,2551.5135735685685,-13290.359506263114,5549.668277342642,-3069.61498816915,15359.85622895162,-5039.4012624584675,2416.1628589358716,-13302.210328745972,5555.759903945442,-3038.105879700647,16437.68165560957,-4455.528612555404,2273.4990659581104,-13280.470736048039,5568.555171124488,-3041.481202272751,15432.638401483358,-3665.9769829625466,2751.7110606311753,-13288.582819220432,5579.5216524812795,-3065.2095181764157,15158.04704630452,-4448.748297093051,3506.2010446718064,-13294.061854747246,5555.707225134402,-3046.803019584998,15637.15581590007,-4748.216960938612,2690.4426989152025,-13301.9094403953,5560.292337201033,-3055.1943056069454,15867.58193032012,-4493.322633625226,3915.7510368538497,-13291.543794440993,5575.899392899739,-3063.0262857267817,17298.117690212468,-3443.2774062378267,2360.051445169013,-13310.25734042241,5571.618165055421,-3054.208754210853,16068.023344599798,-5015.368599880399,3935.922580464255,-13292.791587417332,5564.805180288911,-3037.2760648424837,16555.353211156773,-4064.143240447239,3131.7222891441,-13291.046514687847,5567.7044074677515,-3073.70527446698,17165.884947301736,-3303.3436458385568,2606.2993778462437,-13288.450178820436,5557.941422232336,-3060.3941754440857
15576.0,-4204.0,3016.0,-7316.0,5745.0,-2763.0,15926.990337892763,-4487.164801105815,2445.546621010884,-7316.292707038204,5736.006681518446,-2755.513875973373,15472.836951159623,-4944.3966359106125,3139.654969849793,-7320.456751018122,5729.432555815583,-2759.993642631014,15829.133035706995,-3801.310995911549,2776.5188990517595,-7306.721766522372,5757.589960210509,-2758.6021979685916,16207.943705319421,-4393.09873615734,2106.57151918802,-7309.232333891975,5742.236856122059,-2754.926058872503,15944.134980657296,-5011.279426632014,2847.2482623040714,-7303.600222419123,5748.867516205731,-2766.8836248367575,15772.687021222862,-4347.241313822264,2886.8379731831733,-7308.715320920298,5758.245367617128,-2785.846909258361,15697.888485089356,-3981.158870924408,2337.225368133295,-7306.415588896975,5759.901199094537,-2758.080253229761,15023.619884025286,-4127.352775609968,3233.759279400486,-7322.338797324455,5752.612909015113,-2747.21194179681,15850.583258889597,-3138.3183534895215,2297.2285619315894,-7297.533520151829,5741.830886624819,-2783.844506419384,16286.905079973707,-3635.5380982323745,2278.174899767068,-7311.7358476352065,5747.032240397713,-2758.8901702738494,15569.451128646659,-3937.9284257382296,2515.9716064123477,-7320.333018445421,5740.190836180619,-2757.6986108329997
15968.0,-3876.0,3168.0,-2640.0,5322.0,-2367.0,15505.056182269034,-3328.2576950940816,2489.64667862107,-2662.763831690809,5307.216807603904,-2373.069267328316,15704.257472860294,-4813.841519938267,2922.6520793438317,-2634.140314616809,5327.852178359264,-2360.674528905016,16569.24404367177,-3354.058828514583,2906.6831780270486,-2635.8209910172163,5328.040047049049,-2356.8974742263063,15651.328719182162,-4308.337368795668,3592.4783747134984,-2644.832226454552,5325.756421023006,-2361.059212461902,15833.731113617068,-3369.194176561997,4518.161411272166,-2647.6187522670243,5319.043163253861,-2367.993894168571,15993.151554659324,-3750.945934506028,2583.0646124039154,-2660.8826177599217,5320.2032944837365,-2362.8455650779497,16207.932182278339,-4747.564804590265,3931.4860656902492,-2638.17940582964,5326.753643032466,-2360.2119835008057,15499.760390974066,-3060.1929460642395,3331.716319322388,-2631.9409101003625,5315.017427839251,-2361.53011367128,15961.345023839876,-4253.565370593786,3240.4740464692854,-2640.467046704991,5336.665195061501,-2364.72355287294,15742.349744834119,-4114.146205010645,2907.403804080029,-2639.0330482009863,5318.097751407156,-2360.5550949532803,15849.907058732302,-2931.5981304448096,2423.7372846949484,-2635.4760268172536,5323.35134944617,-2363.2320755816713
15872.0,-3300.0,3536.0,38.0,4727.0,-2071.0,14765.707834705223,-3717.606248452773,2880.5649783979775,56.14062327275091,4724.739009333458,-2070.806263934417,16500.39274315864,-3221.286645021084,3720.6881474306083,30.878975907336947,4732.504412543583,-2071.0576569087298,15970.491580366188,-3457.5265551692405,2715.712116573379,32.29297623887631,4738.259606527215,-2083.895089258808,15940.240126852077,-3736.634309768719,3644.742402851089,37.12334915497486,4732.161129801499,-2064.4821881469525,14995.836460548137,-3660.3534907751455,3914.767948940407,40.28405284914415,4718.136843697603,-2068.405810699461,16295.46588853982,-3927.7169928988533,3594.170614210225,33.079751955783216,4730.722046684638,-2078.6132113351396,15277.33939882915,-3713.0203915074985,4289.260918870099,30.066333217399734,4729.890546935997,-2067.500667165584,16526.28721140969,-4479.017910350071,3780.998980730776,35.594058320749554,4737.5261810454585,-2072.9485721366714,16702.63265049145,-2861.912876738155,3854.533813827109,48.86239342931217,4717.768244339681,-2074.633736712195,15469.277567255978,-2584.369882678503,4676.837888813783,25.052920948286378,4718.1772033261095,-2076.602155098955,15302.013667872676,-3638.0582645221252,3308.4486587410024,39.248417130628496,4728.473374385472,-2054.5576449708415
15664.0,-2792.0,3840.0,1100.0,3775.0,-1402.0,15793.001795458262,-1868.0750886711232,3894.6824543867583,1080.8632663012081,3764.5169944605946,-1401.5403682007227,15190.363501952357,-3141.4247299522917,3296.4333127976142,1107.5965690225298,3764.745130521169,-1397.3551096965398,16078.850936378465,-3150.2406168639363,3745.2925367926605,1089.9507003013925,3772.707983681512,-1413.9749540286941,15939.657388823332,-2084.5904014407106,3322.431005184223,1093.1964874427833,3784.9839540060907,-1397.527385309022,15551.134077233875,-3250.660566167443,3674.437448037241,1101.0313567256417,3786.362031549461,-1395.6839802535505,15127.667408057081,-2872.6496393023303,3651.812711473132,1102.5382322057455,3779.0244129170455,-1416.8535091943936,15709.901199783417,-2189.149257973905,3627.5591782364904,1103.8931379088237,3760.737655385789,-1391.484697255531,15112.343260995953,-2532.618031076336,4601.490702745028,1084.596921937338,3789.9358960472327,-1414.4406552052583,15556.640976906352,-2592.599696151226,3975.6755668446986,1087.849518938055,3779.252019275687,-1415.8168104573301,15736.94586593127,-3277.3257940690246,3963.174973309304,1104.8164781282808,3770.9105817158024,-1376.890413893269,15407.949444995595,-2059.2022043070847,4129.769397247493,1116.217125616647,3772.1486389561082,-1399.8923709874284
15544.0,-2644.0,3944.0,1285.0,2588.0,-1201.0,15295.273716540467,-2373.7938772875386,3161.8690145973806,1297.4014277338892,2602.03844265403,-1209.006793386961,16058.051458712895,-2243.2659521209284,4092.30981106194,1282.1926497734441,2591.834302811447,-1209.04660314808,15986.369715521598,-3106.4924058614165,3464.210986175415,1274.9173995744422,2590.1651737266757,-1214.2895607116423,14663.674944410861,-3498.920905580828,3962.5437069647983,1271.9919798862913,2581.818074811484,-1220.5818159329945,16132.118754519572,-2437.0241143557414,4080.428987312962,1256.2001382392207,2582.453912801896,-1209.9836448199526,14843.35265123359,-2923.4657497607222,4231.729542755158,1274.2988850386039,2590.3718824507805,-1210.404786252506,15617.797991388103,-2450.3776589576005,4153.540486064377,1280.0961771717518,2599.09007605977,-1213.6564991662547,14794.803739162526,-3389.72021532969,3930.347238566093,1278.1953848274986,2583.357802288552,-1191.6347864167617,15073.169998379764,-2520.0049438568067,3906.93203402284,1286.7902695182108,2597.149627062144,-1212.404122739914,16054.091542038239,-2442.081062585976,2945.9086447880345,1272.8101793897647,2593.5999325473304,-1191.707747935446,15308.945990179593,-2534.229110436998,4198.9039169783055,1265.2410014198333,2580.864044660705,-1187.0227975070736
15592.0,-3036.0,3804.0,1534.0,1844.0,-859.0,16164.471043378984,-3403.870655988485,3860.9347586313284,1542.6235458441085,1828.521437706481,-837.8416119110551,15230.152894480387,-2808.6878152875684,4401.468464876827,1543.1139597577471,1826.7860375321288,-880.3650099243494,14910.460964001999,-3924.2392640237504,3296.282582205954,1529.1548126547218,1833.0988356972298,-856.9183794333262,15932.108907707025,-2522.290240985949,4032.2276311598143,1541.6565398563953,1818.8245018053453,-879.8051333773146,15411.748992973058,-2779.378234667992,4137.1255499316185,1531.1973093587414,1850.7239432143226,-855.075711881813,15753.267740458981,-3145.0247687068845,2931.611199283663,1542.9866105877659,1831.659748227262,-854.7623644290076,15425.775918942942,-2859.1061448573246,3686.96445742861,1538.7187285557507,1851.7236948515047,-858.4635593510869,14917.419624398346,-1975.5848082572772,3431.9842802408625,1537.1912743485427,1850.4925239889865,-864.9482762728674,16047.828353854578,-2788.2649115337963,3515.145793683736,1536.891685022483,1840.5221407076008,-855.6018534165037,14902.701015910608,-3544.5229755853006,3430.9080431308257,1537.9607244631914,1854.6461729692098,-855.166558788149,15157.948947201801,-3205.778136587978,4941.3702413257815,1534.8626808681165,1829.010271493225,-866.9044588949653
15444.0,-3268.0,3856.0,1066.0,1393.0,-92.0,14909.792879368571,-2871.1670315975775,4043.173205299714,1070.3863744026357,1383.7179277881241,-83.72441056312807,16527.886061486075,-3719.3361186932257,2870.3665457138172,1056.2110797283115,1392.3382161823183,-93.48564752939568,15337.316053008022,-3561.990540057772,3491.2074305239275,1064.7056069751186,1385.7248942118101,-92.65499595312922,15430.388673572936,-3329.795447288656,3941.540439147717,1096.1676290006303,1389.536431325271,-91.55380664298782,15018.829280955242,-2479.7851195347475,3162.11973020381,1068.8144220942945,1387.2914956386119,-100.81362755843413,16349.502560451787,-3237.25002058304,4050.8050407309524,1073.493715064858,1379.675403328513,-107.69163348223348,15892.627333447666,-2112.108505475556,3660.320936474298,1066.1425321440563,1408.995258521861,-109.79877612928242,15593.756742633686,-3527.006570744955,4103.593953046969,1077.2377760050072,1406.5222540790744,-107.28827829105497,15904.755927379192,-2343.5907485768375,3373.1236409260423,1072.6490873630391,1385.1967137993465,-89.05394151127501,16307.0177061114,-3619.4104574323665,4246.700179016789,1072.155182897263,1378.8990374520795,-82.9629229720398,15988.70030514616,-3699.7649198234712,3546.647331742967,1052.146090033829,1400.2192325330293,-85.18433438473528
15600.0,-3184.0,3784.0,557.0,1218.0,1031.0,15230.11089213611,-3083.9116158624133,3721.080603105091,563.7132972033444,1231.7431418300746,1043.2871161264552,15935.933366077928,-3691.5521840864385,4232.737444419327,556.461724972485,1212.5533797796354,1032.5954329848196,15843.852225591485,-2949.375890990835,3386.783646631757,553.2613006257935,1209.3714704939914,1038.7225281727656,16287.403799765394,-3281.910440257737,4120.014859328618,552.1504767323951,1202.54852208671,1016.4994879938835,16423.489661624353,-4678.727153554344,3110.4390613005035,546.0906547824968,1198.222535195525,1033.9567239163302,15796.458675449147,-3354.640932749139,3765.963612884683,545.5609387358143,1204.6767292374313,1027.9857586749858,15583.438437976154,-3407.751149153123,2900.1697555463397,545.3977256916584,1228.8890925269911,1036.1664156067038,15156.095454602922,-2774.3866059634247,2631.616462864077,557.0816139619325,1228.9876379745212,1022.3863306544717,15466.921379877742,-3709.906308143385,4210.418848503151,563.3004225793024,1223.5883319264192,1040.302194785817,14960.084443046479,-3894.8041875639074,3268.97485957007,546.70674964115,1192.8926587668636,1016.2102757270101,15373.408577252292,-3506.2987964320505,3539.863814505229,537.4721615894551,1192.0067267734653,1032.6775898518524
15464.0,-4012.0,4096.0,-85.0,1355.0,1809.0,14935.200147562424,-4494.867956684032,4106.693189063495,-89.82300020420034,1340.662542649567,1792.8808972386973,15394.243035262847,-4646.878110725502,2909.802624016462,-88.22360069870099,1360.3278277338707,1819.7885230252564,16017.682043541692,-3749.9527217986833,4413.838799218638,-84.83853230682816,1352.10215812869,1790.9016466504506,15517.850418709191,-3390.132755394021,3946.9052400049013,-64.31565201337392,1371.0482932224108,1826.6469739827387,15424.529163396319,-2837.736469360725,4639.377337107134,-90.8935201632327,1383.7038866306716,1813.8239207933657,15587.92394019719,-3802.9083874131466,4043.7574932401512,-79.5688646427888,1369.9929064617415,1797.2771970335018,15107.045397096808,-4873.223560710404,4458.185902253725,-93.97869771922426,1363.6076512772631,1808.88364606735,14441.393275029099,-4090.0467600252814,5616.887875216964,-77.87351501113781,1356.2829756414942,1811.1474813085244,15784.359675542697,-3591.8598824395754,4433.7393409433025,-99.67099891242376,1332.0515825770517,1831.076842877612,16131.400469730263,-4604.724102088159,3487.6431507606894,-63.178852816382175,1323.1857804388421,1795.5215045024647,15715.06224298387,-3891.3214443871916,4288.614144048944,-73.34077052752698,1356.5734639981263,1802.4383476492737
15356.0,-4140.0,4372.0,-72.0,1497.0,1465.0,15909.282248469037,-4458.397963882609,5488.07709939722,-88.63630644387183,1491.3141921899069,1481.599495807655,14570.975439876695,-3923.7676187418997,4402.9855472566915,-95.91070371409032,1503.1681791860858,1453.7082216721462,14862.06591179833,-3555.063348242554,4004.549052622834,-65.27632366539422,1499.84279889557,1479.4111209780826,15788.761380837084,-4565.600154694292,4753.346008416902,-74.17977500534634,1496.5727453500526,1470.9303897234897,14989.08664036358,-4338.686413145393,4553.133228930949,-87.77102959242494,1501.8021025161563,1475.4086859296528,15414.422409890245,-4110.9885823240475,3884.3482031652397,-69.5438457381635,1501.4442760355173,1453.2945902621002,15618.61288170955,-4147.441860523284,5131.864144569605,-68.8681327243565,1495.3261817941204,1466.7399587114871,15042.85160142997,-4572.277809481217,3802.091443587535,-84.12599493373962,1509.4897847396096,1467.2935562570087,15818.252750540412,-4479.387214028525,3857.1496786990397,-77.32379266146278,1501.1867016881076,1464.9764725051652,15735.287446587472,-3711.411830675812,3734.005696969717,-66.24435049261663,1503.4704506736998,1465.750014771186,15316.987631857313,-4271.525935744449,4446.778014009946,-70.56410193647807,1507.8964015443169,1462.2165498423963
15332.0,-3856.0,4584.0,-528.0,1503.0,1982.0,14363.399093507122,-3169.1613461911375,4490.298977352448,-528.0068382337156,1505.6376652166987,1981.996302319135,15459.641906908977,-3294.351367326964,3395.42860040404,-537.2475968896225,1523.5337153455548,1974.4965616678328,16279.499545603088,-3076.261998101005,4187.132409596751,-526.6929280523382,1488.0286265411141,1988.8890568392362,15877.252776105937,-4396.263566321842,5280.089613537061,-527.678580036111,1497.927784140545,1979.655070686345,14824.501998887936,-3134.7484816344804,5475.508596191079,-512.2902091312023,1496.5299059346996,1977.3304581372477,14863.906576411457,-3895.2839830321,4576.004485153152,-538.3913179097808,1495.402825751339,1979.5217290565818,14794.029464039855,-4021.3007399606163,5705.6938497935325,-517.4510998954644,1503.3975662656842,1987.8783696112398,15755.75829789696,-3131.2407322202,4805.206115753512,-528.2104504091067,1491.088305414733,1981.0142930331513,15206.319805306131,-4225.523938892104,4649.39064874761,-534.2190840538585,1507.485620263012,1985.1302759995785,14905.435645215666,-4148.03531000014,4190.721639338279,-538.9305462883054,1506.4641027503087,1976.667521267611,15465.70830070036,-3230.246055059211,5105.4723522810855,-524.9389618344579,1502.3602837359722,1989.8077823971153
15084.0,-5064.0,4852.0,-1041.0,1242.0,942.0,15933.0814413304,-5517.150060013182,4913.5264696257045,-1040.3397710617858,1250.6095447698096,932.7185424696106,15075.132638429834,-5149.04630516745,4995.61058557744,-1039.3379051293402,1233.4493571266846,932.8583009348808,15669.924636937434,-4712.965990155188,4773.004993484319,-1038.5406338508062,1236.6663220075397,944.963784332615,14361.138802995683,-4896.490205705482,3837.675850991991,-1048.5676173068941,1240.5922376228482,942.5136631874841,15260.141263479669,-4818.461580411579,4804.758922366855,-1043.490198354151,1227.554611634435,945.5022414741576,14586.90028273278,-4679.552313002134,4647.330159624291,-1028.437117231952,1225.6592632616312,936.2253533492442,14467.953582265161,-5224.596001028643,4895.573950366891,-1049.0156468570892,1247.1449825661675,936.9049338590964,15086.243811117622,-4787.517031397063,4927.690728046885,-1032.441352043222,1239.9215528660147,939.6345185549636,15750.53253285156,-4440.364352498247,4858.421104245452,-1034.2335043136727,1240.5512746924896,949.1279085999682,16137.632600484187,-4772.024364280496,5121.861984655822,-1052.7312776205476,1246.8096717075825,954.9170942490241,15168.939262430988,-5592.590313391516,4373.217968319072,-1044.183279545656,1230.5815591650019,956.6703419459278
14796.0,-4572.0,5064.0,-533.0,1260.0,-1910.0,14996.964222849614,-4941.796811852535,4841.773370727232,-528.5862377677483,1261.6760330518186,-1904.724686762949,14474.427731658012,-4379.379901771936,5127.97816638099,-538.2357661554424,1268.808320248932,-1907.036627012998,14491.89051934037,-3648.1387383744795,5182.698194094723,-533.770201902065,1257.1915657751586,-1920.2870803857365,14600.681793565993,-5332.768111074681,5348.032530591831,-541.0920922464104,1272.7369695816622,-1928.3898586576938,15118.08957548557,-4043.609572106193,4838.885097809848,-545.1281437715589,1259.917089589146,-1923.3392733339062,14861.258280803328,-5375.566965444199,5227.839458140088,-530.2224911525952,1244.4231707487595,-1920.1799649820325,15021.484823113602,-4640.625526507822,5444.241938769356,-532.0320481244806,1254.4571311126592,-1897.0836158160675,15256.718353851677,-4813.445248227779,5103.603997810716,-536.2205489615646,1263.428825985579,-1907.8791176401342,14326.673148218335,-4674.295812553571,4807.878552633977,-531.305870849457,1269.1075846763856,-1913.4982254974132,15741.68783370696,-4554.144513791984,5043.715281701073,-519.6597195955467,1269.362001265607,-1904.8739557063388,14285.609514259631,-4268.864662274766,4751.884068307367,-535.736027124587,1275.6609503214893,-1920.6759279466094
15892.0,-4696.0,5588.0,-949.0,2313.0,-663.0,16153.940954605965,-5070.396945943896,5354.849865713223,-940.617130064886,2320.8049375131495,-676.6773402688443,16043.873085624193,-4337.318793147671,5606.377266713675,-935.5099907642632,2322.3172920354405,-663.1249865692021,16487.29247631905,-4467.05253714528,5947.604215598919,-954.8518308070252,2288.8066050035723,-683.0207803391711,15971.366855167063,-4068.3200408760263,5458.420213168153,-938.0352782015808,2316.969764147988,-659.7099328714083,15075.51205932706,-4512.752199147419,5684.468509037947,-956.8761419044446,2319.2651389396806,-669.840113990526,15873.050241409062,-4903.11944022881,6812.083758188006,-934.97020308518,2314.6610252068385,-658.8337339944655,15267.875450382599,-3653.5745857586653,5535.038467956875,-946.7835050490205,2304.492544889327,-646.3789692866192,15282.792816489678,-4237.542689886019,5533.703883536554,-950.5374056758775,2311.818619813755,-646.2061724871411,16400.45003989893,-5224.356057927128,5647.986318388767,-946.2440708848786,2308.2819443256462,-670.3350171174543,15880.934830747816,-4318.163629155664,4846.049375084699,-944.8161437240415,2310.1980875259233,-652.2716738340634,15846.114166970558,-3926.253048022677,5365.324701244736,-955.103377007984,2319.262136828791,-654.1593091315124
15208.0,-4624.0,5912.0,-339.0,2833.0,1145.0,14785.258008661756,-4679.411059133667,5796.978250388177,-332.46562394222155,2833.0682316779257,1150.9111105153056,15628.492292911344,-5260.58269104506,5984.903652821268,-343.600742759074,2835.939654391579,1144.6106283658034,14003.583031948887,-5327.368549487173,5817.878287019757,-345.95699367804275,2826.5797013977876,1128.6079436773266,14693.333646580642,-4411.893276251645,5350.810647341424,-334.2668362926038,2825.0806790707657,1149.641964840939,14325.502494488333,-4310.381480138169,6241.68798576364,-337.0466689186051,2833.9733359208035,1142.5113904683383,14278.391967404008,-5158.158635365581,5678.231409448661,-329.1486687482714,2841.1729803003464,1139.1946034847297,15636.437631474031,-4101.9202798249535,5758.831405153126,-345.14866858224195,2845.7531137203464,1154.8282937233462,15002.017563079977,-4319.559361029817,6548.746389820635,-339.63078991623337,2831.0372240307297,1125.0516322772078,13895.34301864601,-4637.144416815697,5987.516994660435,-344.4869703219675,2832.3555512421726,1119.9419650882273,14918.840123559827,-4311.115240733258,4722.8986040803975,-340.56969354492134,2829.07305602496,1131.3015516299174,14568.409494423111,-4235.069861974695,6512.18771134158,-343.3286252207842,2840.2064726188237,1155.1285065405855
14608.0,-4956.0,6112.0,570.0,2136.0,1236.0,14134.991409393153,-4304.821426283979,6238.339413650955,571.8599637105359,2136.441998826409,1238.840528061146,13612.547633090822,-5605.853113830765,5989.203377568222,574.2094074714096,2140.152107097174,1246.197342563577,15494.898880762457,-4598.854498925632,7111.160933390142,573.3853870708466,2125.52510101888,1224.589709333346,14914.318381633999,-5036.5323176654765,7045.1567520747285,573.3914796932756,2136.9925780748176,1227.751644633726,14117.164728730908,-3770.709317418915,6099.740404777007,581.8248398678766,2144.2805801207924,1239.6720775939652,14253.268178293203,-5414.005029977674,5255.828015893403,570.5834962502453,2148.122772409311,1242.5326159726355,14730.693187660785,-4547.710079541661,6370.871348318876,574.5400790089251,2137.712011582019,1231.3013653604721,14429.100818099265,-5514.905001324674,5955.243674082294,558.8042806949394,2150.463278573026,1250.3747422353515,15171.919690825176,-4794.232042325184,5825.152166995785,557.5650763336807,2131.266395495422,1253.9288660384013,14125.041038261512,-4535.8766096039035,5747.82928261739,549.9156223491821,2147.5586928951143,1250.3289767494744,15089.323228430441,-4529.94130101836,6036.404910508729,562.154286510727,2155.0930387966587,1237.0463942803851
15020.0,-4912.0,5964.0,2014.0,1689.0,834.0,14201.575975793327,-5344.5468792829515,6472.416617148889,2017.4742492835348,1684.754265607232,834.7046671459052,15040.590999873753,-4862.375135212456,6144.492268718962,2018.1796672220087,1666.891932258388,829.7300267787939,14846.957424730066,-4212.956834691536,6296.271800021901,2019.1843226990861,1673.6068734445103,824.4994403435302,15356.931437028596,-4703.42518496746,5612.295540144893,2017.7781873851004,1684.6996697701875,835.014348522869,15590.728506562304,-5134.7002033803565,5810.8325464197615,2033.134999719442,1696.9790405269787,841.5946487130096,15358.352069165545,-4883.301465820566,5441.9352073259,2007.0931926914532,1687.2308600502652,850.4624273590705,14314.796174355903,-4311.885435958464,5975.947692463929,2026.7835104360868,1710.6018985295598,833.9476348027157,15354.356801216865,-5002.2243699761,6401.561257266698,2018.9202048986642,1697.3367037667392,828.7496322463546,15365.786166788292,-4347.686885932575,6750.539137499808,2011.7613704168764,1684.4781168338845,842.5797303731764,15604.069269886037,-4436.407884455694,5815.598494601449,2027.387500762777,1700.918005286177,828.5059346972483,15593.058691053939,-5684.857740056663,6058.91703281433,2008.6004126177945,1705.2888432962047,820.4952677475366
14860.0,-4568.0,5844.0,3385.0,1041.0,823.0,14416.397158806378,-4679.142864715725,5177.543681777207,3365.886274929396,1035.6319911019725,842.4141236256518,15302.777436366003,-5175.361065915239,6186.926128922123,3377.109738708289,1044.0296556856847,814.2401723941649,13880.975890989552,-4682.111043916223,6377.2870671511255,3393.223159480536,1033.705965157701,830.627350644986,15117.685149566872,-4018.9310225451795,5611.5192602037805,3379.9705407556644,1024.018496743986,812.9566766842497,14306.135438411926,-4704.694610159358,5467.950037344078,3391.7295745719794,1048.0146940627849,827.7465824441098,14255.26290542567,-5662.1944966090905,5496.706292058773,3375.930616948523,1021.4883909966576,811.3258723853188,15119.882675937642,-4513.765331889425,6503.8847416050485,3385.5064748374666,1054.3495134266177,814.5041127880538,15228.228852977278,-4385.441569859411,5605.18238294868,3369.360050005449,1032.8499374306841,829.2062057542386,14284.527200012693,-3964.408635814223,5151.365025393226,3373.2367859361057,1055.8472949958632,803.9000406196885,15514.308534459613,-4909.572844934862,5946.585662308565,3389.808437672915,1031.0577432093842,825.6124531944993,14510.116956675634,-4091.7240465326836,5767.414980214167,3378.772344790531,1058.8463969622405,836.2081274198962
14640.0,-3912.0,5692.0,4070.0,590.0,309.0,13828.029813420173,-3195.8451346365227,5798.0605365081665,4058.659943379874,594.9204213136705,315.2743312279919,14600.559901125256,-4740.22689828386,5364.195005197553,4077.2174422715234,585.4614616227415,314.1813436400958,14453.562777879346,-4155.643052604729,5723.924298456635,4075.6818528905374,589.3065306378301,317.72639922617395,13836.333025083462,-4381.335576802019,6130.866263434021,4073.8686491286057,593.7527009307588,308.8171476909477,14168.373893433738,-4466.759223871801,6089.140663549527,4060.683635307722,602.8958944906082,294.8375066756572,14144.818317028437,-4137.000694596811,5164.97205666335,4087.115307722367,585.9267420073877,336.68571306277966,14825.422436324576,-3969.1018617478394,5594.400571492612,4077.5562120360323,585.0109287947266,318.3688031268487,14321.390072826358,-3935.377670209631,5404.460176714898,4082.857227170449,574.2922975064198,308.7360223418249,13896.921503903433,-3785.5118164615087,5178.31352722501,4071.216105354122,592.2940050805024,313.6338519501764,15756.525476209516,-3523.192658839951,5778.913154453494,4068.426886197269,595.4186502783323,317.2062526362448,15214.358809684969,-4222.586892359415,5991.138409628443,4077.2342267112767,585.9594776583383,305.85944551183024
14940.0,-3376.0,5492.0,3950.0,396.0,89.0,14563.447700196422,-2827.2203272985157,5914.267198608995,3958.9105216741486,390.57948800349146,83.74454052244947,14983.972154476753,-3681.469553071368,5005.60941964908,3954.3890582875883,409.3553418842933,90.35729945258288,15147.206787581694,-2791.0669967508284,5894.6288284236725,3949.359827176225,392.0864548181621,96.54317115199355,15473.49562791713,-4615.895437613061,5060.589119793579,3937.5758895794643,399.1993979360283,88.51899452711889,14834.6439616766,-5065.1196478289585,5980.111502838425,3948.3800547800465,390.0568658269996,91.16795763794183,14984.828657506225,-3371.1672198943106,4695.182603227082,3931.8127615399576,416.96934276354557,88.42517399165635,14555.782194120025,-3960.8670873339406,6241.333959666126,3961.828334579642,389.84334824317057,100.49556885655369,15849.874407641459,-2952.046126506413,5205.494661426438,3946.166094734969,393.11897042457065,89.49769093902859,14972.349877761346,-3324.7910630587758,5551.251032431231,3959.433461952053,408.9987377268303,94.93602498462934,15706.867466328873,-3378.7683635254657,5787.207585750533,3937.442255181727,398.7875139565004,93.37442154878491,15270.538797060919,-3265.6114285011945,5411.388145126737,3953.5801671577146,385.7885564049588,108.76676437743014
15100.0,-2912.0,5280.0,3067.0,451.0,132.0,14867.16749003659,-3749.368877535985,5748.661841703061,3060.325362508012,449.23028630488096,122.65984304450113,15117.30708961247,-3319.610129609225,4174.77205196901,3059.122914524198,444.8525223697291,134.74541171222194,14885.376276395576,-2707.2605985080045,5640.640625568979,3069.5796258451296,450.9516575462328,127.86385824330581,14499.751339765007,-3380.095471438943,4732.6389629674995,3081.3194640950924,457.2531851047511,119.00999888061183,14814.657424989093,-2587.4758010753867,5291.484783844388,3061.4337636647633,468.6230146744699,130.50804384369752,15372.53668465033,-2753.9648930473218,4631.23517092397,3068.3071991327183,440.3301595026464,132.5548422563693,15347.178045861217,-3189.5845181947125,4828.124816777323,3082.9844214813515,453.57624701085393,128.59340830269542,15381.43284765287,-2657.8988591818497,5413.276286924277,3089.7884999351077,472.75174990674054,122.8016633774739,14893.542330471006,-2416.6291095030388,4655.665202808651,3068.3637949252784,456.5145651809827,144.37731214270812,14927.017530410856,-2503.3504238285323,5642.934617509774,3085.9115230426182,438.67111937872454,110.14163057947233,15111.6594891243,-2795.325234199359,4111.954943809777,3061.4219336913493,468.26482198347907,135.79101496717163
15316.0,-2888.0,5012.0,1717.0,824.0,283.0,15322.088001520953,-2892.8799157776825,5139.06170991996,1720.348508212735,810.383828589982,285.86914327206,14212.039119810404,-2614.7763978240023,6030.266809523275,1723.531499819159,826.9016520109651,290.63296965214573,16225.41715637441,-3377.186862259603,4611.4280212248195,1723.9494876785554,808.8449138700333,291.63378543730704,16251.37589229634,-3136.5854462602756,5368.459098412973,1726.971269204285,824.6617756563453,286.6116704290269,14969.99046241104,-2637.615168222453,5683.654769238452,1741.0166124228565,826.0271718368335,311.15895498543694,15703.218289493889,-2733.688133734049,6147.5218693571915,1731.6146754673782,822.9212355724479,283.08689102384767,14943.65240257205,-3754.7932925657296,4058.114063212031,1732.7863019966526,831.5361426583685,268.4723801176082,15594.148596334446,-2820.608806197338,4511.717773421826,1707.3884180536872,813.0017514323923,278.61292840385613,15217.294406293951,-3065.410475784049,4848.081495291864,1714.9546994844106,824.889678557851,282.3332558519515,15671.065406939633,-3176.3365616162055,5228.706708631429,1734.6835085480438,833.7031895678007,278.6292971659178,15122.888175468632,-2431.8997381410286,4646.895101535689,1720.7909636568056,820.4176688595587,304.8431291960319
15412.0,-3124.0,4836.0,691.0,1128.0,429.0,14539.816295366647,-2950.7406245599495,4965.044187955724,692.9626919885864,1147.4403664012627,420.31194213019336,15425.0281704011,-3510.693196018187,4076.135459464591,690.2118644091523,1135.239462012419,423.8408062714806,15626.547027251387,-3163.5445054219927,4525.167935207356,677.0421172520149,1117.893200719474,438.22426958200504,15438.464082540848,-3329.7975653868366,4514.16244075887,683.7721640936139,1115.534565399532,430.67894874152114,15268.922354075921,-3422.3575859702246,4829.9028838143095,686.3761912913333,1123.8543968066897,439.0152885237245,15792.603384422553,-1970.8914166775453,4789.138363832049,679.0490222270092,1132.727151203203,432.4271717661968,14866.69823797841,-3311.630081163281,5234.0804000273165,707.9330153625847,1122.6217885262058,428.3432500870704,15364.152459196759,-1688.157710062865,5018.161851917387,686.1407675530421,1115.2285014980464,427.9737896934685,15469.665547146087,-3038.2254393713242,5038.699809077,666.2414009531692,1129.2449340054657,423.0955463448531,15107.466268547492,-2613.3500217388273,4138.67577319045,674.7013003641154,1121.6117652056635,420.20433684780164,15832.010732700304,-3337.5610182866117,4593.097769173639,685.9470054458351,1135.9800727336972,425.1503623571573
15504.0,-3208.0,4656.0,-33.0,1410.0,544.0,15069.291983793066,-3031.7569462417537,4905.414788819515,-29.16299400083951,1419.0952431128474,543.7515384267148,15534.701871568475,-4114.342781726582,5329.95962734271,-40.31001565810861,1412.3770618257386,545.4231256103869,15703.869646319255,-3133.080209065954,4517.390363632315,-41.34226573179912,1392.5183498451029,544.7044017220068,15503.939448527803,-3656.2906942083846,4569.605792001991,-26.798866019466022,1410.3185204575332,546.7908782076129,15046.427746634043,-3490.038404408065,4860.4530697843875,-18.944243344982283,1402.795032733222,527.3456942136546,14906.515456867875,-3587.430867458699,4679.790155385106,-35.116377911049696,1440.7205660026168,537.9412647940879,14392.025263537402,-2908.475979093944,3527.50094769931,-28.448634599626345,1413.8491799430656,544.45552500987,15474.771275513875,-4054.5880829249086,4847.248750731126,-28.84357168207263,1411.0952432821286,534.7522553992846,14608.031693566145,-3535.057939107671,4490.530086752716,-41.32491718596047,1412.1641537579019,548.4240948666421,15065.540111538921,-3124.0690118087673,4428.330494619068,-13.857013676934798,1412.5471362539408,549.1997111790128,15951.80223951233,-3675.079145960666,5310.69914748874,-27.698702114655955,1399.0072373696005,527.453205229666
15524.0,-3180.0,4632.0,-433.0,1600.0,725.0,15224.627185674719,-3400.409280976035,4416.960836544932,-453.97087818779727,1585.2858916475425,718.9225518761858,15547.827314912702,-2971.280291422839,4460.287859491094,-431.3700053636089,1586.523578012184,734.9435765594923,15522.87330060366,-3641.607265464686,4648.480543292207,-423.27656086842023,1595.9940720573754,722.1804646938728,15978.017929644699,-3547.5349673012724,5223.7233181784795,-432.0878497223681,1600.0707670101353,728.44280270318,15990.460995742424,-3097.9522961203056,4358.569979617642,-452.49286492529563,1604.5198724145278,732.2730280444433,15396.138066960402,-3621.5558337858592,4443.640982060724,-446.3383521527354,1623.7602673435904,723.4289073019487,15815.064622021333,-2483.437213043803,5446.090566132595,-425.2090165901825,1606.414529056182,724.6000182108967,16494.709475434287,-2731.9750876929133,4183.662870079516,-422.0752780705816,1608.4837387860334,731.7998186158691,15220.422289071967,-3496.531349072135,4704.2607949765215,-432.4088143384962,1600.8561198764367,729.5436896400414,15594.194083970184,-3600.8410530673063,4759.273105523252,-419.51887034199547,1592.4241198418454,721.2639954418929,15682.694665581586,-3830.5664946044917,3956.054806727445,-439.70648614683336,1589.1970648006743,720.3905980948854
15492.0,-3412.0,4428.0,-651.0,1525.0,1212.0,14920.032897260347,-4271.505878779015,4387.270933216582,-646.9278185190159,1530.1116773044982,1217.911374917965,15748.452907697472,-4181.27304381136,4559.30799731451,-637.0161410958835,1546.406572819686,1199.8954430048616,15898.913961494032,-3866.8321352145003,4621.934112743077,-631.2232811957269,1519.9647663101823,1211.2037649475515,15052.227582455249,-3406.708863153934,3205.963285854029,-657.9866101740712,1523.0856724947405,1203.0012439522989,15826.75726958187,-2213.262944144968,4466.082279554218,-644.5403334930982,1534.6019526550972,1201.9438630824507,15278.488320442164,-3789.542629517478,5680.84101334459,-652.6123349321078,1518.5391229241009,1209.0196273069334,15916.914441928597,-3429.1971932613737,3447.026201559718,-653.288380553148,1512.8001792512484,1207.4725800035735,15077.72123121245,-3557.3128879538494,4857.277864626099,-662.4922134125628,1530.8259484574417,1232.5253070331846,15160.016076126594,-4127.132478535985,4365.191784163456,-650.9829604119196,1514.919100263538,1199.9549509427693,15643.55111044762,-3075.9884067141356,4325.801124710821,-655.7059553314172,1517.5336669150934,1226.6275310622275,16068.860555074552,-3488.926921198118,4017.0011998396026,-661.3980098607824,1532.9389265674567,1226.1613412878019
15652.0,-3280.0,4340.0,-649.0,1577.0,1614.0,14683.8018841865,-2447.9024481277575,4417.102754737335,-662.0477106998856,1573.417255872175,1619.90811157981,15366.762701574418,-2968.1330381809385,4201.964750646591,-653.0209317042824,1573.333339622363,1604.6597627269457,15652.208828724699,-3171.099439156605,3939.2225215113194,-639.0489249063882,1583.423245054675,1621.232381909862,15542.600732445537,-3560.9972656826376,4215.618221562186,-674.0095063759684,1599.458696389245,1625.7597881042977,15397.448684875315,-2988.0945615883015,4082.9695589672983,-656.4880067404572,1568.609687419833,1630.116669557129,15293.082103700288,-3707.6761554112345,4765.895575268514,-636.8960936809403,1577.8198964926016,1611.9544373109989,15704.585213285167,-3607.877309435154,4421.120418974365,-654.0386378964231,1574.623210599539,1616.6281485896118,14888.053758261536,-4757.574538246976,4817.4748979034275,-648.3036106443835,1586.6062827109786,1625.0582546959668,16508.72215851994,-3320.9058849381477,4538.216246759959,-677.3734253415331,1573.2258005544265,1618.0309336202174,15061.983171425829,-2677.1032361804782,4364.999964449768,-638.0870552027055,1581.8828935032918,1607.2927080891654,16446.693157834485,-3799.2141550779593,4971.8141915338165,-649.332055606811,1576.7688047049796,1625.2086827940593
15588.0,-3324.0,4208.0,-468.0,1601.0,1783.0,15071.209876839728,-3176.8805778542796,4707.826905029057,-470.19776857024834,1594.74321476988,1775.6966414949086,16070.44579331172,-2667.6464873311634,4089.4011598806055,-465.6846984623787,1588.9266562636947,1783.1867864086266,15761.65098336895,-2971.8084751244837,4843.254806896422,-475.6539809084686,1607.2931197321723,1795.7554656746163,16443.24442402928,-3103.6781266950434,4071.7589802327734,-458.0290850749048,1608.3589903590628,1784.912195660875,16326.626959914156,-3863.2818200813826,4200.0114976039895,-472.10190348578834,1594.112467110799,1782.7462926520716,16009.785556838251,-3382.628568860257,4992.339967581732,-474.5815057851179,1598.5080425340695,1790.1512822597351,15941.91896341916,-3122.992559201262,3951.0875151682794,-465.25279432276284,1591.5812487148296,1784.968667493547,15316.073849776827,-3223.723049118758,3564.928800870466,-474.6220362283208,1597.5827764453607,1796.6007331867736,15385.274817702637,-4059.856567806253,3998.64899420675,-472.7077781124774,1605.1633341351348,1773.2532473544406,16502.65576681311,-3241.4680196066984,5328.58128099931,-472.7032254482256,1584.2838495455408,1778.9350233861755,16112.38656858626,-3232.466877851819,4099.655462721215,-459.334069016379,1607.0343918405913,1780.5070421912528
15432.0,-3272.0,4236.0,-188.0,1671.0,1758.0,15767.832241975459,-2864.0951079006836,3591.006070626888,-175.0051049318256,1666.1692400886652,1764.781374531035,16200.337801405438,-3135.65869838555,4874.739057876483,-194.7703662421271,1674.2409632720364,1760.6089459732973,15627.191587349553,-3600.6230631191675,3766.3769952701177,-173.98764534147318,1670.6151101157561,1762.7421152542486,16194.018598710067,-3995.6830052219852,4660.783194257355,-195.80658064215703,1693.1724425310772,1774.8393217769744,15824.011187200913,-2736.3411078523354,4176.212189484101,-172.44503847915448,1680.1195218875368,1747.0893508141357,15321.738306544052,-4265.225954584627,3610.9004561403017,-193.80150462599195,1679.5756381491638,1764.4021416231099,15656.142389217674,-2666.383419112655,5110.534599661683,-176.94642770082223,1678.7112363692809,1771.3287360346833,15367.792626958437,-2352.331048178218,4436.943018539134,-187.83918749483547,1671.8969874474296,1754.8232769265371,15290.509850875309,-3555.751587329713,4335.606947667335,-182.19728975196165,1655.8765414832255,1753.2097423390464,15750.273168338057,-3044.2469898222344,4142.1295760486155,-181.48960888733444,1657.2754348853166,1755.7012093621606,14997.462148094919,-2720.3805892394244,4272.002312875767,-186.50229036501247,1664.7412765954043,1757.6030761785933
15300.0,-3220.0,4268.0,187.0,1602.0,1656.0,15727.368815309608,-3178.4652056702066,4063.870483821761,193.83286497406158,1594.673882623307,1650.8334769895132,15817.173345095787,-3399.1765104964043,4739.37390189543,178.9155084631827,1588.2317088967056,1658.182713103091,15665.643644468473,-3393.9901340103997,3936.3845668541353,175.53459853781573,1592.8504366802124,1653.1668283165689,15297.516711678403,-2743.063836920121,4387.469257189004,191.64130330243563,1610.492688516744,1646.980919876785,15377.619429049804,-3373.639849504076,4115.082031531826,173.99039904201985,1606.5990378114927,1658.2435948677944,15535.409307527982,-2389.4669671317383,4638.171742493307,174.45785315474697,1613.339498373168,1658.7903548475535,15353.684274211513,-4078.379141926291,4532.528804608071,183.97740343207428,1608.0678919836448,1653.5949830598795,15314.126383104209,-2681.9915015719257,4490.2346766282735,186.64600672306577,1580.9421411869287,1655.3140447143235,14693.810796242042,-3669.1281765269105,4587.134544418035,179.19236655544861,1599.298061689419,1655.756983867881,15509.615095799272,-2526.5743801758977,4406.8970069410025,206.54680358799104,1623.620886595296,1647.56910388466,15482.028855649754,-3247.5903531651074,5265.1623675778455,172.57486617471127,1606.1163935369034,1650.3337567647472
