IMU1_AccX,IMU1_AccY,IMU1_AccZ,IMU1_GyroX,IMU1_GyroY,IMU1_GyroZ,IMU2_AccX,IMU2_AccY,IMU2_AccZ,IMU2_GyroX,IMU2_GyroY,IMU2_GyroZ,IMU3_AccX,IMU3_AccY,IMU3_AccZ,IMU3_GyroX,IMU3_GyroY,IMU3_GyroZ,IMU4_AccX,IMU4_AccY,IMU4_AccZ,IMU4_GyroX,IMU4_GyroY,IMU4_GyroZ,IMU5_AccX,IMU5_AccY,IMU5_AccZ,IMU5_GyroX,IMU5_GyroY,IMU5_GyroZ,IMU6_AccX,IMU6_AccY,IMU6_AccZ,IMU6_GyroX,IMU6_GyroY,IMU6_GyroZ,IMU7_AccX,IMU7_AccY,IMU7_AccZ,IMU7_GyroX,IMU7_GyroY,IMU7_GyroZ,IMU8_AccX,IMU8_AccY,IMU8_AccZ,IMU8_GyroX,IMU8_GyroY,IMU8_GyroZ,IMU9_AccX,IMU9_AccY,IMU9_AccZ,IMU9_GyroX,IMU9_GyroY,IMU9_GyroZ,IMU10_AccX,IMU10_AccY,IMU10_AccZ,IMU10_GyroX,IMU10_GyroY,IMU10_GyroZ,IMU11_AccX,IMU11_AccY,IMU11_AccZ,IMU11_GyroX,IMU11_GyroY,IMU11_GyroZ,IMU12_AccX,IMU12_AccY,IMU12_AccZ,IMU12_GyroX,IMU12_GyroY,IMU12_GyroZ
1864.0,2052.0,16668.0,1744.0,1374.0,278.0,1835.8519775629482,2149.099185614794,16773.628919202354,1723.7841367351316,1370.0919710307207,276.86765706651175,1698.8846584264436,2066.773081995895,16447.09891980956,1762.1370509435812,1370.3909330096296,283.419417589404,1834.7762884558965,2072.4085903984965,16584.428991329823,1749.6544651574209,1371.3245679129038,277.6343298290552,1788.2189240576517,2132.184497888173,16438.56232972518,1746.6730124128278,1374.9990617585931,269.11490078565157,1915.6523014361687,2101.293908198825,16604.470093365922,1735.2680505902067,1372.5660707321824,291.7587489277108,1622.4072350653764,2043.6663678259229,16550.97998687723,1758.3953911837655,1359.5041307129961,278.7748101496429,2094.425190050416,2069.753826893073,16571.68744284545,1725.679400373385,1366.2849559256947,283.51494875771994,1928.5013510601136,2038.2099970457657,16641.141523258586,1742.324715607631,1373.6597022536048,277.49725605614293,1838.6805499016205,1979.4597477424527,16735.430665919866,1745.918518760827,1385.3588863077193,262.6297755677152,1818.9923682180784,2084.6193609665925,16759.999064665495,1749.0951556239556,1381.0974503140023,273.90513390656974,1748.0675116087325,2170.497641774571,16873.248075432813,1748.4547962710299,1383.1394316711987,271.6336504437774
1824.0,2096.0,16680.0,1790.0,1377.0,282.0,1764.9971849050028,2198.145124030952,16416.988845772285,1797.0601619818096,1371.6973884599997,288.646096927978,1795.7208703888925,2281.8708680681543,16638.02051245954,1783.2659638779542,1385.6153476558577,289.9941293242605,1766.2385856720957,2018.538834664796,16746.842304611167,1778.56732491815,1383.3876639152954,281.63517569099554,1672.3598882416122,2214.26906513073,16630.526813404664,1802.2307835111685,1370.1476501611319,291.46588843066047,1838.561026083777,2114.0178493426083,16669.798689520623,1804.1067470696069,1385.8612986964363,271.0630255167661,1658.549931424099,2143.1843085445253,16901.762097332892,1792.1696916209173,1382.33367260191,280.13562464714,1824.0285510534495,2016.3449715950335,16584.014839299478,1768.2000274550405,1377.3457090445386,288.68211373568494,1987.2243290730453,2041.0634431875221,16418.893181073414,1781.6176879293923,1387.8318293640884,286.79813699561544,1837.6902739043687,2053.287846018132,16658.603949197568,1791.8609437403072,1369.6021225239297,296.92058951834133,1735.621715795053,2217.7763683789285,16591.74069489423,1789.0562831456893,1368.355278694877,278.5996852662758,1765.4120683484314,2171.216455417701,16626.188797642302,1805.6058465624315,1382.8863117056533,279.69021205548586
1884.0,2020.0,16524.0,1899.0,1471.0,263.0,1851.3378312571297,2192.1843571049494,16471.42641902942,1896.1860916432188,1464.4530903862842,261.8434152537161,2010.132238766588,1858.4658142549613,16545.797929196626,1916.5143838267186,1479.063488161493,246.77026397886803,1826.92116738761,1883.0131134003989,16503.59649923061,1898.4732026423349,1480.51464815587,260.7448254802578,1955.9333896032517,1902.5746895626464,16615.157658616852,1906.9500912595772,1464.1683598681677,255.6740683798145,1894.2144335102794,1835.1370146607192,16374.31275352408,1903.209557913818,1476.0795122487673,256.6215188159265,1854.7920983532197,2040.576615064826,16709.90577727342,1895.0999966188647,1449.4067888251163,259.541003973735,1659.1908122114235,1924.4020718497118,16682.599848851587,1899.1245509043215,1459.4986835502898,274.22706283029123,1989.5640975600556,2006.0022550693157,16474.667876310537,1917.306299462812,1477.7042649574414,256.3714903899761,1971.5045977177576,2025.1829014745258,16444.820804008643,1886.524169103894,1478.7902928876235,267.88738717293876,2013.8999185466566,2205.0799302739733,16525.56969387678,1897.506136501667,1451.0826557335579,263.55839311386495,1725.8291889322184,1920.4629214165293,16402.53606237257,1906.2370542313852,1465.2942160974617,256.8352627621475
1744.0,2144.0,16692.0,1742.0,1356.0,269.0,1927.0691942059937,2123.2836789802323,16700.580672139797,1739.1416105968722,1363.4466682510827,274.2212849770508,1905.2564642944567,2272.3056594458835,16684.732328411003,1740.0955707922933,1340.0174739050608,268.33268214319287,1669.0460942964958,2072.25219046341,16665.51582866685,1747.6758615993945,1352.4308600489321,281.1117428144374,1830.5693326535068,2158.6137393806484,16590.631914385798,1753.07402412879,1364.7616037274115,259.8672090580605,1775.8044426150518,2072.691645366591,16786.211600240862,1759.781939681233,1359.3776450140163,271.54961241960166,1670.4051931372746,2205.850922634224,16757.021511990068,1737.2654414329786,1353.357745237963,267.30453071520014,1733.2703908869828,2189.9268611284865,16450.244539915624,1755.4701961663654,1339.6347173508063,283.79954066821375,1656.0469973611525,2097.8975852471053,16623.37997066084,1739.943515412379,1369.0083589762348,269.68441290119983,1744.5810964997609,1925.752865259757,16588.452729654837,1737.306462512865,1357.1380937777208,281.35642581064513,1865.0796123216285,2153.683585569865,16548.37266984442,1729.9359159488165,1357.4100364697872,268.56803227874195,1733.6909336192944,2207.677917777921,16587.814548995688,1758.182924141261,1339.1549381381801,275.9859504623893
1760.0,2192.0,16752.0,1704.0,1353.0,269.0,1829.3237499000363,2017.7627727220756,16546.735902787914,1688.382897038106,1350.9141149561926,269.3414668125942,1888.7196092415293,2330.1837183291204,16836.583871563053,1696.521816561222,1349.898474795159,260.8651374275518,1706.8540970876502,2306.032215405547,16647.864924489877,1719.2289133457634,1353.45581284578,273.5136450076094,1740.1953734030715,2123.0852390675163,16739.666369768267,1717.2475031204146,1355.4082647686346,269.81149870681145,1634.1411780033868,2140.629851940971,16807.709761531532,1715.064605571796,1345.5192414627825,267.3580859909672,1713.1960285821533,2339.751230469244,16617.10937620001,1701.4454692122224,1349.4402826313722,273.9178724414711,1918.3398818539704,2314.094258646317,16808.78701257839,1696.057915503881,1346.562887219091,250.56708627836306,1606.0292209290683,2133.010955715567,16728.18398040195,1703.3572383408302,1361.0816209779405,279.181303602781,1834.788430243181,2187.8902025608613,16766.95617943349,1702.0863069646832,1368.8714841498972,284.5963732652672,1798.7329872199634,2103.317286951062,16724.234437649982,1717.575435419335,1343.1395056800473,291.4092068547014,1917.3587443306378,2204.8103482190545,16713.113725404397,1710.908184823644,1351.8049860106953,256.30739484418604
1840.0,2124.0,16692.0,1681.0,1310.0,278.0,1828.6768816244378,2293.6418795744607,16483.843461823744,1660.9307089163926,1306.726160321839,293.7036616042054,1748.6427673458243,2136.1851887081175,16829.792986917942,1678.1915567817487,1321.0560316870374,271.7074162273542,1948.7322079434157,2210.359094251244,16736.474881971782,1674.8568641826819,1301.8946560805268,274.9036337598474,1814.0483466191413,2020.525776631641,16538.311276113818,1670.3363182567318,1321.6523446177484,266.48695393489567,1831.9197363384324,2040.1184639636242,16770.90638945454,1670.0784062806385,1304.0401270157588,290.17655110847096,1595.6886135253903,2223.1098429380404,16682.628723617127,1672.6092754204415,1311.8162719042955,266.4856450653831,1894.736414396646,2093.3174825816614,16932.10924959334,1677.428134565397,1309.0049136812227,289.7208504960649,1844.7764432655374,2128.1050128865204,16675.35834766639,1688.9505280407386,1285.1028476924303,280.43467298414015,1868.8372824585883,1977.8871709164703,16788.41643968206,1695.064512051143,1316.207515181625,273.4458664580332,1871.7758850469934,2180.036446229888,16657.246661997393,1686.9908122084141,1306.9134334754635,281.5418979788751,1651.1633452630815,2061.870282687577,16751.413124557803,1657.9562012188526,1300.7466806353816,271.58280745993216
1852.0,2108.0,16704.0,1677.0,1346.0,264.0,1874.4890030142699,1978.1298119810072,16732.617228297582,1696.8822653216312,1348.1976332780407,252.746323232662,1954.0484137725373,1972.8384640692148,16766.094840479018,1677.4164268737222,1334.6836153101178,279.5210945582191,1855.7253354483794,2163.02953011075,16915.670400647967,1695.549625696505,1342.1636113628208,266.051078316514,1750.2824418684618,2131.7715224065814,16760.4075512585,1681.2635934737389,1326.132983867175,253.76163277423476,2027.5127174261038,2186.3473317092885,16744.554779742462,1653.3921629799438,1348.6733894692932,257.36643579772584,1881.8112293201457,2133.0265419416996,16637.88836936681,1682.86228895889,1354.0674695118385,263.67167171697173,1880.311116945275,2051.9114982976516,16663.604594761502,1665.6818543520437,1348.2533151108098,267.03411270227343,1986.0871722944348,2114.783421898075,16609.24636860987,1653.2326380476431,1348.4390495369614,270.2552948756175,1692.006445758929,2226.5674271934904,16490.20639107609,1684.9568571472944,1344.4004655779238,258.8199610551368,2056.947442407992,2041.684816341516,16799.369624813808,1668.2404694002284,1339.425759282577,267.468648805074,1797.452201556068,2047.5186812714871,16755.16056047106,1674.160968679525,1349.719845976266,270.8957555118784
1840.0,2160.0,16640.0,1642.0,1275.0,278.0,1847.2341160753708,2192.611554329515,16610.602007502264,1638.5289015723024,1277.1002031626474,276.18727013780045,1782.8421293769577,2141.9557841753353,16635.499470857827,1639.766585912415,1274.944750143259,271.4282439175749,1803.3493456281503,2016.5691293466632,16649.943179898375,1637.1658308124343,1283.9180401188044,290.1393991520774,1912.8537743130764,2277.58918432216,16600.773746399216,1658.6071925512254,1293.4260684272112,276.67865481160163,1870.3533640025096,1974.122636452613,16498.06040371428,1638.1872330191427,1274.9978941855288,273.73011852151717,1805.3115581191298,2182.1633733526833,16747.684945460234,1649.5288539159028,1288.621193244693,272.49601647927176,1604.9932543033276,2328.5503053913153,16518.875988896743,1634.7621011790768,1281.8776262292754,268.325536102146,2002.4125738303278,1945.6642909580146,16631.103254767568,1639.5088331288455,1279.1213154087518,298.1493465818205,1882.8371133769494,2117.0157266720666,16709.432663664564,1651.2729691410602,1266.6095090746683,288.3695981158024,1829.0886573850917,2075.9702491606704,16747.807300687924,1633.328481742611,1272.3251813039208,272.2558641072735,1794.0688254835957,2189.4955237394515,16495.114359483254,1647.6854812369322,1256.2230980925874,270.2209735408099
1780.0,2064.0,16660.0,1647.0,1288.0,269.0,1877.6849114948707,1963.6975175902646,16673.12384299219,1649.5359616516205,1275.8781834114461,282.90244629567974,1796.2051556855774,1983.0051129141284,16570.360072257496,1656.7686334671826,1288.5500229020308,278.34367981499224,1786.2637665742068,1943.725844048274,16560.603036501834,1640.8112729762618,1290.6882486619863,267.5911674042647,1756.7940563402585,1984.30990635763,16814.16162106784,1642.1912177737706,1286.640124892614,270.5945701430972,1874.9420541488416,2330.8762206750644,16666.17915573164,1645.8962054123417,1299.908168951992,280.6739317335366,1851.6803849295807,2106.3125815936987,16910.388987654194,1643.6252331436049,1279.329742429806,266.4279574767056,1819.1667262189644,2152.457329739535,16753.091895827856,1638.4061630542885,1293.755945771825,279.51793671986565,1800.4221617905089,2147.984288641383,16555.836586953574,1641.7447367049867,1298.050103289606,252.88257012045852,1689.880128711428,2236.661906006814,16706.321019890536,1643.5890914466265,1292.0691468429156,267.75458111893755,1725.2383441457273,2060.2576907093458,16667.031280707655,1664.3265682833867,1287.285690557425,283.38306408678227,1776.117814722085,2008.1217088031337,16561.052137729315,1643.3687975841717,1295.4763381510943,258.20088104449445
1788.0,2072.0,16512.0,1813.0,1391.0,298.0,1859.2750721837842,1973.8053300687652,16582.95717089485,1818.3308947030664,1391.255227676647,297.8747465594219,1953.7983429353642,2043.2499442771275,16638.70018254811,1813.1915194991377,1393.3110525882696,297.91502957268665,1625.2319825927198,2161.729381008721,16662.077914412144,1793.306128642037,1397.5740043429437,301.5627819837521,1915.2115101271545,1960.4770953592147,16284.858829909834,1806.800592526431,1383.6181821907646,310.46731688652153,1733.3351714289238,2113.8143207626013,16503.7326758059,1809.1718502597168,1380.4605403853116,285.080188370396,1806.040996793594,2144.825576068107,16501.876585675727,1825.5269998674603,1382.3847409988362,291.9055731532895,1726.7747220516583,2130.9692861747253,16515.826056220663,1813.3104478368496,1374.7035218506048,288.27465038178457,1927.0361212776766,2141.5750218375765,16479.19541187324,1830.6208320305159,1386.650101415865,295.73386663243974,1991.9252251841235,2159.751432774776,16833.742472942937,1814.8462889600737,1400.6540793185175,316.58378408386136,1878.5019881464498,1965.932114539215,16533.790304549642,1800.4487848479287,1384.7458026692043,300.1935801085702,1936.959846741839,2029.010373408231,16364.00702952474,1813.3839878390413,1385.7446809737628,300.5384200185926
1828.0,2108.0,16636.0,1881.0,1472.0,293.0,1880.9033785150514,2048.2069984975337,16650.149939930256,1902.0514287299968,1477.8651406735985,277.5468420346128,1868.9845251101115,2383.938114728974,16630.751256056297,1886.0526730514327,1479.0307091257532,311.7657492275837,2009.1786114558356,2054.105179987283,16550.046384006673,1874.7770786034855,1478.8814320830465,296.3883722501177,1843.8367888238074,2046.2445751886753,16654.74762406214,1887.6066143827081,1468.1821755309343,299.36223063141387,1856.277642971372,1948.6358996674926,16806.243010866045,1888.8655798747739,1492.880169013184,307.9962503675619,1797.276745651088,2133.6123553723064,16581.453065513964,1885.367811509037,1479.8659764736892,297.73658814276394,1765.381230827481,2088.1081878984346,16725.858831702888,1900.7049230688021,1453.0203137766705,278.91096326071624,1816.2155763825074,2177.0171127898248,16751.806502390027,1868.4740641981637,1465.589892327546,299.83651123591727,1912.8833069616715,2100.9615017424594,16585.24303842535,1870.1716511366783,1471.8822902158363,279.19144970846065,1735.8909102880962,2144.744965751186,16513.306984157498,1879.8337395233962,1493.9553609588068,288.7309906198061,1774.0730584074322,2047.429971369875,16812.017990233882,1887.1953797744004,1475.613635047008,283.8995343459594
1748.0,2180.0,16796.0,1950.0,1515.0,286.0,1846.527425241236,2224.443181736145,16885.593010600474,1968.6075643625593,1509.8727648222678,271.74404587263183,1707.1289361414636,2110.134360958862,16838.58229560331,1944.7742345695326,1517.5194389336878,277.0983182194439,1572.421714701395,2153.280907368167,16689.729988384795,1953.107119017827,1523.3063669976384,280.0175718608953,1820.5922542635406,2373.9213565336395,16661.04515351063,1950.8147564033877,1522.6128541992903,283.17983269264045,1661.4757998426771,2176.9949049634706,16799.92069090783,1949.5629484988349,1505.4249637009318,289.2162716535152,1583.363887158972,2146.023196497486,16839.853957303927,1933.5302403165888,1504.0241302470163,298.4012607875676,1704.386740224448,2358.2338803319362,16923.3808878363,1942.0547631986722,1515.6910306692578,282.08830143085794,1823.119235369037,2152.130938649042,16966.471024899096,1954.6321813123145,1517.0286076602815,291.13502854384734,1684.1204371403128,2115.502746826395,16816.35608843234,1948.0138475236358,1507.612790980464,300.5200131217507,1796.8535738835706,2112.9899841073493,16735.656820190565,1967.4862719959174,1513.6999118054869,298.119387014007,1641.91078804211,2270.8002051976505,16776.848221315984,1939.4136037835137,1511.615070926397,302.93641433039545
1728.0,2144.0,16644.0,1799.0,1393.0,294.0,1727.2076645086859,1826.3905180787942,16539.18515505937,1782.5800182897522,1410.3114913728205,297.3619945325363,1725.2004348240862,1976.6818140550681,16668.517732176915,1803.3991739132568,1396.7859450739588,299.20543238263014,1785.3378951225884,2147.74144964587,16747.41797772034,1803.4870410251149,1399.4852664233367,285.20905166408477,1745.5916837544773,2245.6966504723027,16515.558456676692,1813.630293500089,1410.244644589656,286.0993936274685,1596.065481400424,2180.287843160936,16536.410678340115,1807.4134837786323,1412.6014622494538,283.0979140886181,1658.102786803545,2104.0196895954514,16612.21936962547,1789.2011682437412,1401.0564900018455,287.44341226828817,1622.1237252511683,1989.3927640472896,16672.426060458605,1793.290248604899,1395.6204834661028,309.77680867542574,1566.0907082690865,2312.060325018617,16604.93603181054,1799.231640335249,1388.8415783753194,281.5449116331962,1771.068385372492,1993.6582344701626,16759.262934814335,1784.9681141439544,1389.4101449598522,302.37252738205484,1826.7519264786756,2152.663761640376,16649.952306064308,1808.6656240926663,1400.1979658874234,289.22161309113295,1708.636625810926,2116.999830276906,16497.981488496876,1792.7027756388952,1400.5101488106045,303.2781360145818
1856.0,2040.0,16660.0,1768.0,1388.0,273.0,1926.4583487277841,2054.74619432398,16632.089819581113,1751.4443489453272,1399.8853509002508,258.237481677029,1910.6523865719018,1914.2924659226928,16731.341554284805,1757.4855346352062,1388.3637202060943,283.98139968504347,1933.1605191110887,2191.2603576505517,16660.407603661402,1758.66229930613,1388.155113251052,276.37052772774484,2066.0829345153015,2115.673663391423,16581.979058085217,1759.1616592112202,1396.0484257432577,286.4967035012028,1898.8634233861715,2068.472423856793,16620.79086460413,1768.465752920669,1391.73316214289,255.23209675251223,1961.0346483271146,2031.9264921823403,16749.949586272807,1768.5779695494255,1389.0897013341155,285.92012609785496,1684.4828631545276,1807.085499088559,16587.317511932364,1769.652503235592,1394.1177742734437,287.60404879041516,1868.554990719493,1945.0094752240304,16811.359791974483,1783.9496715961059,1392.8526512493581,286.1227324271831,1793.9563500310014,2071.731228449942,16580.115101613792,1753.6156282420504,1390.4424795393868,273.3470675702884,1719.7766697434045,2004.7451106548126,16884.346046158607,1769.4490138656588,1386.0486909294802,285.42701504506306,1799.1882785329556,2052.8033844748347,16782.302948484186,1772.884130196919,1392.1113958478957,277.37047545858803
1824.0,2124.0,16612.0,1796.0,1385.0,270.0,1840.9311155455762,2019.6323712259152,16626.217794530636,1789.6079456559762,1384.561645675247,270.95854689091533,1899.9229186791974,2124.7905417657303,16679.84769124738,1801.7962967503067,1381.0511350299896,267.6953745057198,1862.1147815216823,2186.4594192807676,16729.17233328713,1790.215060942368,1386.6740582461427,253.05826999452577,1965.1188322348241,2174.7607622777327,16846.90652852887,1777.359846023541,1394.1565707315262,267.80055235131186,1820.021421982214,2036.4637793626578,16570.135291321934,1795.9334159399223,1392.237648045819,270.94704521248474,1929.8211606483742,2201.926021727879,16590.55037733548,1791.691893017818,1380.132671536617,261.60110375629455,1811.4140995759853,2067.4759915735285,16466.769341559397,1788.6844333537765,1386.0049268671212,280.729762314038,1896.0529283441595,2038.5843226280397,16506.741123967076,1784.5900440012886,1364.4250490180625,271.85497469257064,1833.6257323192845,2006.2527671980872,16616.94777097398,1796.934890104058,1369.0669496891887,271.7903790823502,1831.0465012203445,2148.4306648850356,16476.2131845842,1796.9561982188923,1380.152467900618,271.8419601227128,1853.0718519860895,2007.9478394566609,16627.78099532073,1775.6037494723,1374.8815271717033,265.9161498675467
1792.0,2204.0,16700.0,1818.0,1393.0,259.0,1624.2659230173065,2081.244314611565,16858.446787403012,1809.0896254663735,1412.0472017188965,259.64036246149044,1860.1275264192807,2369.338214430924,16749.64053800822,1836.2845099765063,1390.4984199926253,251.74769235410372,1662.6262200551353,2319.692240606093,16603.24020104303,1810.1151853513272,1397.922121782319,245.89437941793142,1748.0492031500405,2207.1385372391132,16717.91893853131,1826.1410570336923,1394.8598206902138,254.75264620124912,1822.7620557637822,2223.9706769984086,16798.061521895343,1819.942642572301,1401.2518721672484,242.0722031541104,1769.363823743465,2227.496009442101,16892.534064268966,1808.2750207416286,1389.190875458017,241.38180888225193,1874.4417669597608,2138.8437296718853,16697.388618723162,1822.329500585819,1405.7752280520879,250.47136859655714,1771.7699278241325,2282.7408724330303,16721.67708821984,1811.9025759486253,1403.4696106992285,275.45021009214463,1776.3589841674054,2107.6006689562887,16799.109139993132,1821.1296868921838,1407.2219884834096,247.35018853533066,1866.7161480156196,2253.68131105218,16735.54753678719,1816.001123864581,1385.5687274869726,250.4489519702988,1657.3176528027184,2114.2580963276046,16688.834831175922,1819.7145007734118,1391.2395811250185,266.94531234804555
1828.0,2160.0,16708.0,1696.0,1327.0,259.0,1760.8115626481913,2133.739993050051,16656.494715068642,1678.598492608159,1331.1188842697825,261.0125148366672,1863.0096332128549,2396.9820449453414,16619.11259098721,1687.5798445607506,1321.6326316680077,242.86291349262316,2068.979504718272,2274.4531824413157,16639.177127769133,1708.291514126645,1310.153823853769,259.5620258020035,2101.6610495637183,2202.719623052454,16643.859407183332,1694.210091596867,1337.8143689620656,263.87320653008413,1928.7045269620303,2052.6682883256312,16510.568602297528,1693.6780911285148,1325.8864572206678,259.7254211398425,1799.5219377937663,2130.451357779995,16666.83576219583,1680.8776300029806,1329.4114487146478,267.9305885197069,1634.1249394423662,2266.2199096460095,16602.52236254203,1722.30600560853,1325.3361411598605,257.6789355023448,1901.397949696001,2069.1763321112708,16813.285973593967,1711.4848320535434,1316.350559025561,255.18263698953726,1847.9389514249472,2191.6381040082824,16818.314154367796,1694.3233405514375,1319.336566749538,248.6589992029525,1842.5257682817046,2105.8794813472637,16790.817233428632,1694.6623268028109,1321.5447006800173,265.3905010571318,1857.2848690200644,2310.9375936319657,16576.305254682622,1705.0071113599263,1323.0881289052938,246.4190355034679
1844.0,2112.0,16660.0,1655.0,1260.0,293.0,1763.1507697954753,2254.958435429261,16668.378973184866,1659.7438259191042,1255.8467592264578,270.42334734388515,1711.3956769788556,2253.5193361264764,16638.160305540066,1671.7963088615516,1270.958321697785,302.969206447417,2031.1048668723672,2119.892876439244,16691.839487837005,1677.0989629642104,1249.375453242403,294.65280020804266,1951.238016963275,2125.8381420962673,16538.1253095372,1668.8277464339592,1262.3674797234598,306.6564136757171,1794.0862181098453,2122.8900484698206,16708.98995576095,1643.243164160044,1267.0576783894244,298.3707242119077,1958.463140776902,2053.7671415199184,16671.59534599169,1641.4316414322536,1269.812122854183,301.860176055859,1872.6544276248012,2226.1345708642884,16761.988230399536,1665.3356584339024,1256.5645587912772,304.2587614926753,1895.329783357293,1998.0810950086811,16571.00040990819,1637.4443076043653,1247.521598564455,288.59814204148864,1957.2610744513647,2291.9663340887296,16580.033966614665,1643.4298285489433,1258.155815422568,292.5211269168064,1745.1919565352869,2013.4595538013882,16729.093349438477,1653.5543377873971,1258.453956964619,283.9555512576006,1892.904701008267,2202.9240040794048,16559.18233299053,1664.1232129358045,1251.1349481439431,299.2811770525429
1804.0,2120.0,16624.0,1735.0,1303.0,234.0,1950.7978544415923,2019.0173578730328,16571.528508713705,1745.0060543593045,1309.2603264264533,227.99519927321006,1729.2139715130581,2119.010825833585,16751.265727604634,1749.6311515580169,1310.8150882347063,237.41617587581175,1750.8668820245607,2045.9326522178096,16664.640345180145,1746.1212693884975,1312.5203613558624,225.63511537754886,1663.5979139927922,2062.369425972431,16563.638491001708,1724.1634886203879,1282.7146779087407,229.10684867550916,1690.533152845165,2240.6736319074566,16612.533565492773,1741.5646520537061,1288.5590178740597,235.41422053121047,1958.9836885295172,2123.365935654726,16453.349330733658,1716.7379455838102,1317.407122969241,251.28346820501645,1652.2565348963149,1996.3741453741782,16608.656366714727,1734.2582145859217,1304.33911153406,240.1209811786331,1815.767417713728,2149.9995125880787,16498.7644346876,1725.5651033552813,1316.474691821837,236.64667559567258,1958.1976381490883,1884.867441831315,16632.003452152374,1735.214260646392,1298.029886650348,245.42488490853825,1646.3018925358322,2169.4119892804956,16689.064582934803,1727.1165984380966,1296.8635973966543,228.03905739084166,1766.2312593692895,2155.0139872414643,16546.071987126506,1726.683287627104,1296.459185200896,228.0836016426677
1780.0,2108.0,16740.0,1718.0,1337.0,273.0,1694.4431958775344,2118.4649216213243,16669.150141822574,1713.955930898271,1344.2887880498988,268.9327632042244,1680.1233177015145,2009.457638383595,16656.297066384803,1714.3991085406324,1340.7224048611674,276.46025573379467,1745.0166386943017,2237.392991093311,16739.919974311837,1706.8542914396196,1326.954885338942,258.3610127196517,1796.4238284849885,2181.1186711121645,16741.81894728961,1720.1754246009807,1336.6270105888136,269.4912221424017,1683.7660791684154,2125.239557275022,16698.79339427533,1711.9539524698516,1358.9642894798376,265.7619515304013,1938.151814016354,2298.6062624225106,16765.786467718972,1704.713219086424,1345.8443449275694,281.0920707600423,1834.4386200193678,2058.82037648717,16784.97507967893,1719.2117903557107,1340.3217204476898,287.7272324753561,1674.100198896153,2029.27791119142,17142.593320474032,1704.5978814853845,1334.7989075455191,275.91643174623806,1648.4869442698612,2121.9506431154073,16743.619785407165,1722.4592621311003,1338.0526934372576,280.30310267428615,1516.562079741901,2064.0672531160026,16810.157474627904,1725.6496907871626,1329.5263011551085,282.7045823296488,1703.8727763480595,1994.8099873970755,16771.540906783815,1729.621664122224,1347.4799910950985,275.1837458642001
1808.0,2100.0,16648.0,1597.0,1235.0,282.0,1996.3089433094262,2095.87404501495,16762.902547347156,1604.5037770813647,1243.317039870229,265.56423232077384,2028.644704421113,2186.4975703485807,16576.341223668653,1594.227997087817,1245.0720998402003,261.8762235379736,1932.6946097574228,2007.9171436474066,16485.155684536785,1574.8840912706942,1219.8278311059432,281.63124927499916,1772.472161876726,2093.6193051898836,16507.648330668682,1585.7170676561675,1256.5529506046357,283.3861648510571,1729.8400797093568,2106.9256959568233,16694.009546932793,1609.331746602612,1232.8534139355365,284.56581899982854,1756.9432155573395,2032.0476493662036,16603.330184731352,1585.8635434847067,1230.7992507784713,282.4781496555304,1509.8343507995914,2270.9686838123444,16725.474718473743,1595.3592684190216,1226.4406800349025,265.9317635706647,1841.1865051811264,2081.552118464486,16847.025733924194,1604.8481405615926,1243.018100337546,280.6865332783793,1878.2597002970672,2091.199124551707,16673.110659251004,1608.7508821473782,1240.395320242012,283.6186528548441,1851.6010928032224,2084.560188326882,16498.8148904545,1584.5974316029087,1211.012223391755,274.1315862066865,1672.403131590313,2106.6747870875097,16731.9811323141,1591.9209977842443,1239.8253005849874,294.27386969314705
1828.0,2068.0,16636.0,1749.0,1346.0,289.0,1774.3440138970018,2073.289184006798,16533.993146162426,1744.1769890446278,1349.2940933871027,279.0412731167075,2051.3595958686606,2061.9439374528606,16572.393852013036,1748.6983087341391,1340.0319105893998,284.40020056692094,1861.3725006453878,2174.885067143063,16555.276785094873,1756.3834193772605,1346.02509643391,284.36055082676336,1760.5759462618043,2029.4953551733945,16424.681952110226,1752.9828218840075,1341.028923345467,294.75891552488474,1630.0403706414763,1939.8905013107333,16844.27844090754,1746.2077010089863,1345.1836330888705,292.2993404698005,1783.1599713490787,1991.7377972128565,16471.832246985003,1765.7187798490957,1372.0958443098627,262.47918693974634,1942.4533570292251,2084.049009038464,16563.39955665603,1750.4191294349264,1351.6696608560114,292.0555990537197,1855.0606058088404,2074.636372459491,16599.447350712744,1745.9646382256383,1350.4363273190595,306.69339523415493,1761.79171538098,1896.895639295959,16755.335848002207,1749.9744502494177,1360.6927022649138,299.41368480882545,1828.1905944731095,2080.9039670728184,16624.765248378302,1756.8205984001138,1344.919853852967,291.29875646003075,1817.6257508287401,1933.359531985514,16638.81200366676,1741.4305968866395,1358.4496654005095,267.2365092365759
1824.0,2084.0,16656.0,1895.0,1441.0,254.0,1901.617559612321,2060.7606491286638,16738.14392803871,1885.800107372016,1429.4282939043217,241.75499743024716,1791.5464452461497,2013.8250655454399,16672.378636430472,1894.9383747788597,1440.3794107200044,246.70113634184085,1602.9717183422626,2108.507482671829,16631.833092172372,1901.1238810702123,1430.7778084136612,282.54667714039357,1811.4675090166668,2047.292416991242,16802.967996616684,1882.8827192152992,1432.188086044903,245.02774446997194,1878.1113881751141,2028.5854773838898,16544.104561079937,1883.7966830035548,1460.2514375332576,259.746463873191,1812.7855174384183,2049.426221003807,16628.226082776237,1887.3149354357222,1438.9232092189673,241.02868560583704,1793.561888965881,2085.004166010234,16662.188528637125,1897.0802394784248,1438.5232694919957,263.16751161052395,1982.5375325526607,2044.6306054182346,16830.51912677659,1904.8914863502216,1447.1049396927854,236.61190618196827,1778.6913234356643,2141.446319268788,16811.924249599768,1916.6225083962745,1444.9366503202089,243.56251306344603,1854.447913647283,2056.628769802048,16645.47383154751,1906.4543326808944,1445.2745846412201,248.01610418523356,1746.3168498333805,2099.7139071152333,16598.33047935424,1894.5574181090942,1438.8020045891444,247.13075642264863
1776.0,2104.0,16676.0,1952.0,1527.0,278.0,1813.031939601878,2318.2285088842195,16596.290363649372,1934.9819066555199,1518.9918651184573,286.23820567008335,1863.843756983524,2140.687223453794,16754.106381513084,1953.9555396027165,1524.6981623379356,295.5357742599071,1894.0371458844586,1905.1741971843899,16809.549482017926,1957.617604705579,1525.834028813953,263.2364249590668,1734.7548539228637,2004.0461766069825,16788.641418407482,1956.085037718561,1515.0537897459235,273.72871301175894,1696.1935364121198,2065.0352819164978,16548.950827967084,1948.419494400725,1536.0006735122017,285.42969051468714,1819.2847010090193,2078.4307840317447,16537.01589167504,1957.4944543302638,1526.9755680431024,272.28367956138027,1734.223426817613,1937.1774264484743,16695.107442780125,1946.107993200223,1524.3530234498041,254.3597389275745,1743.4678281399406,2143.4784002126803,16519.206140676415,1952.8528279862344,1528.0441171538407,264.4962908258283,1690.1592926596395,2170.612920181408,16690.757780448068,1938.2337456586322,1539.8300270998188,277.0113143253955,1885.9938504210445,2166.283518264421,16677.690793091002,1956.846273996179,1525.8672405406824,279.34648874570166,1804.3904805328052,2013.440286594485,16719.30242791291,1952.474099712197,1514.8568695001318,282.7428032937759
1820.0,2164.0,16688.0,1809.0,1402.0,291.0,1770.0179100125038,2185.7492860592274,16707.009886885488,1800.0307792919646,1401.82873581488,316.5261310807917,1764.8254690408153,2168.520879403653,16558.31169935468,1827.7425721208222,1372.9679729639306,275.80126826440596,1920.6583024104477,2134.5259103198514,16688.052377253956,1813.5285682006024,1400.1987258589913,284.004645204224,1709.1483792925887,2225.374897692714,16699.120719610077,1810.6512284059313,1405.4150620377532,283.26209824168495,1793.3518176001382,2278.3776832787494,16705.010770636614,1793.4386830253118,1404.1585352153165,281.5785224505599,1849.5088597537347,2219.900377243581,16721.764528225965,1800.7273319731073,1400.860482762091,292.2658495092533,1783.6537953469901,2082.2024678815424,16653.470709963894,1806.170619281184,1387.5539347645233,293.4889668807593,1752.1636330657568,2069.2883277145456,16828.061827919184,1812.9129315145526,1399.9267958594228,304.240901271225,1847.796258534965,2037.2460469498674,16685.8066220058,1837.0490030953513,1400.1210811258652,307.48873546741555,1672.7307507233886,2192.7205844160344,16698.95053494355,1811.6147446817176,1421.067070948998,300.6958089997516,1725.8208175596144,2145.006702675639,16731.63876113545,1809.1418242892225,1403.7673643889398,284.18463866834765
1784.0,2124.0,16692.0,1742.0,1361.0,271.0,1715.450047595087,2181.533671188201,16675.571630753293,1744.3595421394152,1352.904909757758,263.7845141778271,1879.2929535058513,2010.1171293456698,16812.92704630809,1742.9380134255853,1368.480249262088,276.89121170922914,1874.6713464209438,2183.376702161213,16739.527446617416,1735.661010954321,1344.6404256005023,271.67232983624785,1807.0132632552381,2094.535845937913,16646.65723827261,1744.1746301326616,1347.2190873794768,269.8644663415172,1526.2572671855046,1803.6299462641869,16727.806078703583,1733.9454918458448,1370.3126857081995,239.8239509883477,1898.4300379451372,2330.655757455739,16709.681718983396,1740.0640668783603,1358.1887752011692,275.84658099805233,1873.989273728626,2055.309654125886,16792.175934440653,1733.2231674310192,1365.4467037306003,265.5996446231304,1845.8686112338721,2103.250274470573,16721.70908779423,1737.9526205077818,1349.7877314479858,280.66990277486974,1719.2055150489064,2006.6886849284074,16611.519300829885,1746.267225540475,1359.4922750338199,280.36286776928296,1727.3767463555841,2188.8159852528547,16692.361881439483,1750.5252462849403,1365.142726692366,272.1980940695416,1698.739706103927,2115.785976914647,16837.415676521785,1723.618932319807,1369.455274292483,274.1433462369978
1812.0,2136.0,16612.0,1818.0,1414.0,269.0,1849.7889764661336,2254.340838204484,16587.081047634878,1817.0433923596918,1409.3590339959007,268.7158302886716,1916.7317929294654,2171.408117918518,16564.68072184122,1824.5020967971147,1420.54551317714,270.4478876740469,1641.1680025862247,2174.3785816438385,16614.948212814903,1789.2992438963606,1410.588148754021,273.08224075602067,1746.9047589846248,2028.4247764652882,16630.25497700117,1822.1809940381759,1401.398131773805,268.65214347761105,1837.7525944359527,2235.2889600532235,16739.595526352645,1824.9757308579187,1423.9209353663664,277.4816854530625,2029.7227313209924,2215.232631829226,16627.216004343674,1829.7507824377394,1399.4067900261741,292.75733718455126,1728.5396244114297,2025.310651284172,16595.11339526416,1829.3300862209956,1420.173330584521,268.49654722871236,1907.2251658043342,2038.9793785750076,16637.160589490377,1824.3305406991572,1416.729173640336,266.9765603442553,1807.320295337434,1934.983912913244,16716.769949511898,1814.5317762087623,1410.28412033283,276.13084884636373,1848.228132193655,2096.7033794266754,16349.217835865407,1810.049644079696,1422.1928748953865,254.7842691440862,1817.1336537467043,2030.6134827443707,16602.166404455133,1814.875936710966,1420.9558127024873,271.1547235120819
1728.0,2156.0,16820.0,1841.0,1411.0,278.0,1616.1074492020934,2347.0390491349804,16831.39378969065,1849.5199767687486,1430.072085540864,275.5288907339754,1634.2767420255113,2120.77122974945,16858.52740832417,1852.8373035848879,1395.0571592110996,292.13701952370036,1571.4195317653366,2021.866626084287,16780.015820498636,1846.2554347126886,1398.7454230756637,287.1132100642449,1774.943461812644,2202.143503718684,16887.97075980219,1867.1624547406288,1415.4421590796894,249.70733710679147,1647.0813461262987,2174.315211898034,16865.909333569733,1846.6927861846104,1433.1229795850647,272.13431668441865,1692.6694334497624,2216.4524501765486,16673.46239881007,1824.6342392611912,1404.2154890710458,268.0834713055488,1622.029920214587,2272.761920586796,16919.43268985325,1845.3357322083446,1401.741298984189,281.53250410059735,1777.7097822399114,2192.5123297933474,16728.646845247833,1846.2734222981508,1409.2218977015696,268.0797600457355,1781.2001673649072,1996.5339978853094,16786.52509674032,1842.7902539265353,1413.2807387833677,287.46013315147155,1571.8911580166289,2065.6987935417137,16812.628911141903,1846.1530267578235,1420.7984527989677,272.40406181318514,1746.8841620195997,2168.327189381663,16780.558813741714,1838.9987429828834,1412.6305081416424,277.49405430505266
1748.0,2152.0,16724.0,1742.0,1306.0,254.0,1876.0455849101118,2152.472398114848,16612.508537279722,1748.7253784389113,1301.6563967984257,257.16275888795764,1759.720018922838,2068.8837467924104,16636.877468997754,1746.1417429781748,1304.4744106722624,256.49971091851677,1874.5922691862334,2182.586413865427,16629.083250290776,1751.2250960904892,1306.8592204643817,235.5501923797918,1847.358667941991,2128.7887767882808,16684.793198798925,1749.9299978648212,1308.9441051139036,270.64812730151226,1753.7146023838952,2142.70097493365,16848.63519922488,1738.7197546886528,1332.6451226478216,262.8200241959854,1744.573683422954,2110.3161582457196,16808.091723053923,1757.6495502492503,1311.413079652806,240.0584004657957,1786.713807463543,2313.1413252668676,16867.26959177807,1739.0842412483616,1302.848098806494,272.139112063017,1651.5699427647335,2146.5379459258024,16590.743637596966,1737.6444002347578,1300.6857566079816,254.56425567161054,1816.4289853489745,2054.2984656111394,16706.81217950773,1730.4907806911106,1312.2018840356318,254.02055972667887,1692.9754287549652,2269.550585689464,16638.550015803947,1757.7435194346733,1295.4273334201773,244.40589847454822,1756.8296870135312,2305.6414694908012,16855.122332978608,1738.8447462516979,1290.5091786334056,256.74389231621325
1692.0,2176.0,16676.0,1659.0,1260.0,275.0,1620.5606402157962,2191.5480362341073,16812.917074472065,1683.3443387004565,1273.7005169523386,261.9760117705881,1803.920188307496,2130.8034962794295,16706.564075838818,1658.9710863019618,1259.9219166390046,289.1777768510524,1773.9697797430713,2286.705619114434,16661.351001203682,1652.2981245641588,1252.4220055098235,268.43349824481436,1724.9764288516656,2085.2630051545525,16702.868690492734,1662.3465715193313,1266.6033474556452,265.3305168198958,2025.4967454979078,2174.8314332432064,16814.580136575474,1677.443283478401,1254.0746181951286,272.6910433607513,1742.3416526392807,2220.999981259094,16485.87884675401,1651.3023485868537,1270.6342696131007,280.4733285117853,1670.9706956593702,2312.766919934957,16659.22194222547,1651.166102148005,1252.0867845453265,298.08245687426256,1673.5789045714303,2029.608147260385,16587.999707414263,1662.419776833673,1255.3752220622957,273.0386209731912,1710.4625255069404,2080.720989319169,16783.78623226706,1657.864963629913,1250.3709539480203,286.9159445816345,1760.8691422008594,2126.7037040526943,16694.134824734585,1655.1207066265652,1260.8789569263834,275.0878276778005,1679.7123301691083,2037.935355593194,16645.353821137352,1653.7320526801102,1267.5287197007153,269.6201289611597
1868.0,2080.0,16600.0,1684.0,1291.0,276.0,2044.0240651017948,1840.1415017654576,16499.880067562943,1700.8632284355042,1282.1694350777357,278.61960191394604,1928.8789712185412,2082.459126150479,16746.643997230352,1684.2843393307853,1312.4836193395663,268.3744757382683,1904.3612300806196,1945.6613761309598,16557.148675992306,1682.7642103836893,1283.0262600171643,266.1134870519325,2108.8795705326966,1985.4561388292982,16568.68165641748,1687.9872985774512,1310.3032904066613,278.33519324461406,1933.653171551234,1995.1951470169606,16687.47791971156,1694.1056918924612,1287.9473563552335,280.5379218887971,1902.3126871405852,2068.3825665945697,16686.524625222766,1686.5453420803715,1303.5652108250786,263.7512325415594,1830.2779575357622,1955.6800934466232,16678.570028317074,1699.130535398823,1272.0157144362026,270.28831513014893,2002.7061523603386,2023.026337626468,16463.11154623468,1697.7191408153355,1297.7584443406815,281.2052618221533,1824.5703003028445,2174.5659430919422,16543.916879454606,1692.9311069403798,1296.0366622912004,281.38685653926166,1719.0952230034595,2084.5862491325115,16657.638296619116,1672.2839589553369,1300.8101658700737,248.40852846529802,1868.8081209570948,2058.8539754324624,16657.370326049087,1701.9233618328062,1299.1234554013183,278.02423342301324
1792.0,2124.0,16648.0,1740.0,1345.0,288.0,1930.7802888653957,2162.4688813947982,16528.126617812974,1732.538107977998,1336.1817398722787,284.271754670959,1500.107987898929,2202.3699199468642,16640.600776515985,1720.7323049435356,1347.579054512224,283.59033759784086,1826.9951405540246,2172.3549494854133,16636.172086903287,1733.1411991462119,1324.0698131099075,280.23380750325987,1590.8451445103171,2025.5124259701688,16575.162427922023,1737.9661535002037,1333.042774695142,284.1181535550506,1604.8791142449975,2264.8063399268385,16656.0797824688,1729.3891259032348,1340.8402333177767,295.5915337947386,1806.4812886511636,2345.643623344573,16669.985284095725,1748.1976896197089,1361.5935121599416,282.8218801040832,1661.3871677242942,2222.8916622386864,16446.579445708056,1740.6822401508741,1342.879573534051,299.35134905574495,1798.0155301871748,2200.58759591486,16634.422575127985,1740.8162264112302,1333.3484704807884,270.59982882194754,1816.598937966814,2020.779193480384,16661.220639014053,1739.4771759960927,1347.9870252857431,292.0303626081164,1813.646611777213,2197.608150186257,16671.576094818643,1728.154857930918,1351.1632686552746,289.485282029237,1901.5402338467918,2084.8870595645803,16790.909094150284,1733.441750846921,1341.545058962518,290.6108631630081
1812.0,2164.0,16700.0,1731.0,1375.0,249.0,1608.4721211403944,2277.596756793871,16672.278758521414,1711.7475119602916,1371.1259802467375,242.07688062065375,1684.928514652253,2319.7079468108154,16475.491409417253,1726.6175978918923,1391.4725743109398,251.91300612751965,1770.4318179699048,2110.3963143444516,16594.01518309512,1746.112114874681,1368.5120691530562,257.5594548537771,1826.045601680032,2003.5906877937311,16600.253624962545,1725.0196629078237,1377.915187880898,241.38986831649677,1778.3803128054408,2165.935083435898,16578.01953358826,1724.6889817338092,1379.2338747832944,241.85187509229024,1850.131580426547,2279.071945572777,16614.121180529513,1723.092321511715,1395.8010230198447,241.57207234269458,1878.8124995791907,2233.08018615514,16745.27220134323,1736.1808770365099,1368.7846273338523,248.46075568634348,1839.0294256331879,2234.441352660567,16567.047117947033,1721.9373479453131,1367.8769241649652,241.4074068866917,1680.3859230040093,2179.565569547645,16546.277231837146,1725.6548549144923,1379.852446933802,242.67458793770786,1671.6866438452612,2211.833261756723,16750.696755019213,1728.6987353225043,1373.107838420098,259.26945833762886,1653.7351839915077,2183.907415068064,16620.08192756555,1721.0181828300153,1375.6560883865557,257.4235370953655
1856.0,2116.0,16668.0,1722.0,1340.0,287.0,1946.1614686115681,2106.2881744242186,16550.33035478087,1722.5636338708148,1329.3453557078253,286.50152773587934,1792.7045870512625,1886.1253066389704,16617.550180399026,1734.1175863761068,1327.1562085356984,280.3697640583155,1951.8752242505534,2135.5617972608266,16676.39316024063,1730.4195320287317,1340.9111026748667,299.41278982781665,1880.7187900840304,2212.871719337787,16558.533595446173,1723.8886586551525,1340.8502916016962,287.90258863710324,1955.4240595462413,2116.931395936783,16477.991743362927,1701.4969674521622,1346.6701013341356,291.4557052245505,1849.2683185742324,2175.3667268701297,16729.860556867665,1730.2675561887957,1350.8771994682754,285.0407319990684,1795.7745427100863,2128.5548338340222,16671.272650706876,1728.3761018577516,1352.0761217698132,282.0266992654737,1777.3013530586077,2161.610007248725,16629.26521189183,1720.8888845806937,1340.9698384073918,297.5038471208292,2038.0534507367315,2057.1538735720833,16550.88602563012,1728.543680315481,1333.1706537971393,272.01179239452256,1917.8241198550218,2223.870402211388,16806.869724472428,1724.8448614990295,1354.531177013904,276.18653966740294,1854.0871457480212,1949.6263987148996,16586.517585424397,1737.0877595903664,1330.9017950193654,286.67263307578463
1764.0,2112.0,16548.0,1775.0,1387.0,278.0,1885.907231399674,2220.20557548798,16615.797164994765,1779.3518133255184,1396.5315497641407,304.70476580394546,1872.8448073755337,2171.4792767598337,16561.45598807261,1778.5816698042447,1379.9015014279935,286.67873457889476,1676.9558044546657,2341.2853189921057,16623.979789136763,1763.1524316698722,1381.5693532612759,258.909423121886,1853.2603366502126,2051.8520868422183,16567.232106517986,1772.8359011395585,1401.1299912442828,270.8846443773887,1615.4799458163047,2041.8866008860919,16449.521582389127,1765.8363642090424,1370.715885923027,265.01443825234753,1769.3618418070178,2052.6060866041066,16723.536511059498,1777.0342072992714,1384.7552474197112,274.0822551759976,1731.0446292626193,2162.935375064107,16399.260001268845,1781.3395625544515,1388.1741034268225,271.4912722525095,1709.3876243799239,2125.9581160171606,16496.096702043815,1782.0339687379112,1398.3894630908087,260.23767765987157,1850.2259109794359,2147.894371675376,16706.652000787813,1778.0491737505185,1391.6846069708583,259.8071284425442,1726.2724199528466,2081.734667861882,16451.107934702402,1770.9301845365385,1363.9719799406023,272.56147630673905,1713.7598911530074,2064.7789021786966,16556.143783171796,1792.8865787291722,1389.1814862451154,288.63218299768994
1788.0,2048.0,16644.0,1842.0,1405.0,249.0,1895.203236349302,2116.4328851249343,16774.83177470315,1827.16501551754,1377.1165016466457,267.4113477423205,1658.4803985211192,1990.225160703162,16768.684520467024,1847.3038227712075,1397.0241187226043,236.05877785752682,1931.411520136095,2103.264013548175,16579.190266854046,1839.8725876444812,1400.746885247463,259.4734026125413,1718.2302255379168,2219.3862399992504,16826.04357797551,1843.3745627971712,1414.1098055075283,252.3919134320317,1819.3621589807076,2161.154412309886,16601.291523311804,1847.839670897228,1411.5830959216566,255.60751614248898,1679.1103076362715,2104.8764362647994,16567.73244719507,1847.134896014515,1404.8812614047993,248.57173640255337,1796.8232494710242,2299.5824579100513,16666.98986552105,1827.8952637662221,1415.4780937782527,260.00703600126064,1932.2882386291583,2159.413232026723,16463.78705366169,1848.1400122610796,1398.7078449037197,271.86406296527673,1802.3325434575747,2004.625197471729,16568.38670795725,1847.608615655685,1414.2752873515017,270.0628021564222,1732.76410525565,1987.3925274964374,16610.006359448762,1847.9261137922877,1399.312367845585,257.24000349390724,1680.4317842413666,2040.9371783384522,16559.295186852363,1834.3483167501095,1387.8041113184286,246.4667943043688
1784.0,2124.0,16552.0,1784.0,1392.0,280.0,1725.6887325144805,2150.626686976622,16490.96151956358,1777.0221192036875,1371.9633394734456,282.0734168925778,1809.6532526845347,1997.014057477506,16526.875566602965,1784.3296169165312,1391.9726495819236,265.9269393328057,1605.171456892153,2023.98422092883,16690.354290189687,1785.7146036999156,1390.3528644662072,285.8399445384038,1849.874989154708,2211.182227493913,16782.038199750117,1780.3338718364853,1396.2771664523311,263.82384523425236,1596.8215346355953,2056.1335555246287,16715.076277712884,1786.2976252076355,1380.9362473412352,269.9054123374265,1851.7565773516735,2013.2209055586509,16546.714216654065,1771.02583754654,1394.824267906362,295.01185122165236,1811.7252091793493,2125.7874892755526,16530.70773823349,1797.4826451076249,1397.1365614785436,291.04893240691365,1714.115129761531,2273.624901527041,16484.124536690186,1789.2027002265822,1391.7803054892897,266.42318243077773,1715.0071553474854,2185.548744763035,16581.95841678634,1783.2398552629534,1378.866957001379,293.8799383304459,1759.3500528380894,2185.7997612523686,16638.30048049092,1787.8259337317497,1397.9005469868541,274.6255292407379,1588.759825774429,1890.8204697600083,16491.370345524807,1764.965117472001,1394.3800994073829,286.67214493169945
1832.0,2052.0,16688.0,1750.0,1344.0,276.0,1670.8864104473357,2030.9117985456712,16687.839698654534,1755.2034583252446,1338.9787545729523,274.822719817205,1894.6024780417958,2093.965682333261,16665.277063511105,1739.528521533242,1344.4968477194404,276.6244978827502,1829.5397451134397,1973.2700477629905,16525.796932919806,1736.762222866492,1355.1483239831525,282.98721474532687,1799.9653225258235,2024.2064794926127,16497.309070595726,1748.3534050992964,1328.676502304826,291.3302399191732,1942.3805691397145,2135.7124501293774,16482.853053703657,1754.5909456082888,1343.3955568218942,266.83479257689714,1991.828545069701,2121.466856560012,16815.572346411784,1742.3367270538904,1332.0135333832377,289.1811679776917,1979.1230150931742,1963.823424705745,16824.232261830264,1733.615669074835,1340.0056400218803,280.7797781669744,1836.7689360099246,2041.0839489825885,16756.372365832533,1755.2052221733118,1359.4304248042818,271.00644515887774,1743.4742808239887,1998.1158583673162,16603.000152731023,1750.9252912471393,1339.5976005134742,261.4765146234923,1681.355654099701,2081.321001285326,16739.226455185308,1761.6123004902447,1356.4721673609506,257.0271975077701,1878.3251263013083,2036.4201766492306,16543.586819382075,1758.0821399289916,1348.6674686071203,270.6898542053601
1784.0,2116.0,16636.0,1766.0,1352.0,263.0,1864.1794913500987,2241.44589420223,16538.98494869465,1762.2185874822353,1354.6329962650495,272.66688404306075,1830.6994438882093,1975.1058601872498,16636.777398341877,1759.9595270120928,1354.8559751032442,258.70899301752564,1722.9473908440402,2231.7584413462164,16566.02810505644,1781.383779343735,1360.9443848181434,279.2294110664848,1897.398402966917,2204.0160029120893,16482.73913051204,1762.7129395256884,1332.4781601903205,245.28140683996278,1827.1755420416252,2159.775876331716,16776.923469667145,1760.4624105486525,1349.9170401306349,250.43653131991326,1799.5331060500093,1973.6676077342097,16483.497525751816,1763.454138248574,1347.583125248883,273.6938502573336,1730.654683680733,2010.0897370859884,16733.644262486352,1772.9861925947498,1335.670642660757,270.31399397827494,1840.3750753242518,2129.7161200406667,16401.398229768325,1764.6300687536793,1350.3811978003937,250.62362123692412,1755.1555516595545,2000.42536458405,16664.270624460303,1765.3305783667706,1353.5275590012957,258.34414884302765,1686.786302103998,2167.761796901976,16600.657628171608,1781.9807344105225,1356.7619019605715,255.67872132833446,1805.2629966388438,2026.2626731355888,16693.21324529811,1769.0857039495352,1354.9234757121405,263.7619091796267
1804.0,2144.0,16724.0,1791.0,1374.0,281.0,1838.4793373609734,2134.091414018206,16630.199314865324,1803.6665702723835,1377.8659159860947,290.49676455731634,2070.2026205919738,2264.9061745301924,16885.89885050446,1803.007844994122,1380.2799805742925,284.54351118279703,1694.4231640886853,2369.29667710524,16902.37275950898,1764.124518952741,1367.3505188735894,280.02267193376684,1812.5571682627506,2209.503371515026,16607.58828705182,1790.0136002660552,1377.4254793149905,290.5893483928466,1688.955050452253,2086.674155791328,16884.874394043924,1772.7028603578628,1368.0974239521354,270.86774579416397,1774.989925632095,2000.5565383156159,16647.96760202452,1793.8080998140665,1377.759075757807,276.2284429016662,1680.1134744268202,2180.2754814193845,16821.05467092054,1795.4575999065414,1368.8472444538825,278.6871426478606,1677.4301926362057,1883.8809049798838,16801.28113302103,1764.7906958649723,1385.1815761677485,292.89640739349124,1892.9023425419277,2224.822722859075,16558.55465741047,1792.877985550583,1363.3916322439118,271.0365708001815,1969.3108225478309,2206.0865770355626,16733.03577640211,1789.33739799145,1378.1384336466267,290.7040319848257,1910.3734150878192,2134.757460025593,16702.28547379286,1807.1197382970904,1371.285107591446,270.22351201128726
1804.0,2196.0,16688.0,1743.0,1380.0,273.0,1791.5936247640593,2295.051603043109,16609.598391544983,1746.2086149030824,1374.1997387000822,278.85861211707663,1707.9792099844778,2199.284869275879,16833.894764235785,1733.8026249441214,1384.3024315494804,285.0327280973503,1732.391560746423,2248.738140085544,16637.99422654596,1736.5299424308353,1385.6791044330444,272.99030192475476,1806.2246525157352,2243.057765874543,16667.557139044595,1740.6722404286493,1363.189466693737,287.4126482710578,1797.9735271986126,2139.0580901879057,16558.005381571154,1740.120551565177,1406.6066095283895,277.21253659785197,1761.7233102324615,2432.2685673579367,16714.78009017705,1751.965543422171,1400.1097214555693,262.8020611115067,1686.648726107847,2157.6538232257226,16660.01514698584,1741.1850949472162,1382.401619103286,272.7792540475319,1527.138830485614,2082.505270951566,16683.349105389534,1744.139574436606,1382.02740847165,284.51013053984326,1718.1391154830058,2137.032940299349,16692.205504450234,1747.6145137284952,1380.6326833773849,273.7936498934152,1745.1242551579126,2109.369548597527,16606.787371230097,1742.075922102526,1368.0947865405233,288.9124161099917,1759.4788921603563,2298.4426151551625,16632.221109710074,1747.254991632622,1377.5670117304196,263.12314897145296
1852.0,2100.0,16648.0,1754.0,1301.0,267.0,1773.156914821915,2193.1757873233514,16598.67345517586,1770.7646433740629,1290.87011141334,276.524317148571,2075.5687814806693,2081.4833122305427,16585.78749900626,1737.4178454121134,1293.539926468517,262.56770889296934,1808.636381414065,2102.9306972955255,16711.99355151682,1763.7521287609177,1307.834121926606,281.85035476450787,1732.2478787388698,2107.026639906309,16753.770103713003,1766.7021567190423,1300.320390664179,259.186184437549,1938.6999561031055,2108.6653748746894,16635.815357593354,1754.8521474484512,1292.4689393455967,279.24236998024827,1687.1627767966431,2088.931461477202,16758.583515834314,1736.7450123354179,1300.9689670001112,255.26840534186442,1704.7337396179637,2007.6349879154639,16789.295364269965,1755.0781540169087,1303.5769242244337,257.15375464079153,2062.767772464853,2091.179986947531,16567.217248252007,1770.7605644875332,1301.5155320042384,268.71307394143787,1829.5253450288567,2129.31598643653,16701.478152000178,1771.383531515721,1295.5434350808514,257.4564775623421,1857.0795817954604,2015.7155438777256,16736.524370724386,1762.8611803978063,1310.847382225433,276.44138683468924,1911.2188977730275,2142.735852913649,16750.844397817353,1748.9697666441698,1297.1265544280561,262.01758289782646
1776.0,2144.0,16644.0,1720.0,1328.0,275.0,1716.8482033786645,2166.398672875879,16559.911178521943,1726.61908357368,1335.1054391363257,285.7890642554295,1693.3933997092695,1971.5426726969313,16808.630104638138,1726.0665668921918,1340.416053147133,267.6783147956378,1767.649541936409,2113.1781250215417,16580.39016362862,1731.9643436130657,1333.327674038785,294.15533093397204,1606.8726092719628,2204.1333200599747,16704.628545151027,1696.5654474256805,1340.6167631363583,279.6609708916688,1720.4839598818724,2141.5244901144356,16592.924923877345,1717.8587040785549,1328.2421612412797,278.7768368076806,1777.3205893498302,2036.4109392004511,16484.395149192336,1709.0165047651499,1328.3230709371621,278.78162821981584,1583.8525169162679,1949.0704249610467,16732.878261594673,1732.8796972370917,1321.5835724150704,270.7656559404827,1794.713820074793,2286.153898000246,16666.54773283827,1714.3277949339044,1327.3172132618643,263.82319283459844,1765.9763338858133,2112.255651985591,16605.29815617089,1722.1818044162976,1331.120095890433,279.89979412176837,1708.9709641866893,1939.8964352555508,16845.486357839432,1726.828946273675,1326.6590847483533,271.3405564095219,1712.3129121627223,2310.550819511388,16574.65740418427,1715.5297020405446,1330.625783877534,277.97665416772696
1796.0,2104.0,16716.0,1747.0,1335.0,266.0,1674.042328946101,2207.7180157534463,16769.84701979582,1753.3293136186398,1341.1929771344205,248.353698524432,1814.8201752273217,2027.8116864266626,16631.552464838373,1739.9125194014746,1324.3548661648406,281.91118450450784,1742.4759177361761,2119.303059689044,16676.179460576735,1758.168392416634,1326.9068666751677,273.2525699549066,1739.479414026595,2022.8590520716639,16656.137088779582,1743.2783971056674,1328.319515312394,277.4281320878834,1706.4376182836654,1970.702092585464,16807.625804079475,1753.226259030859,1339.8696316487374,279.1797314989227,1769.7007921464387,2105.041733421071,16496.27263915877,1752.5336196389553,1347.0593174124258,280.57984012372884,1803.5849171352208,2214.5975782666183,16779.59241940598,1745.0314274571358,1332.7881043404177,269.2312602245208,1780.081803926961,1994.8967221823195,16594.803655696247,1748.400741877984,1339.4844695573397,251.68221422984166,1929.731848957477,2143.6236716344697,16635.8815294673,1755.1278592040542,1340.8734496695279,264.221378385253,1732.570614391559,2058.0899482720865,16766.640953866252,1734.9858053874107,1334.5796671660653,264.1674766214724,1784.4535314823843,2070.3838874908024,16766.114380356437,1760.8312850363743,1336.1549392832842,267.8190514967926
1808.0,2112.0,16592.0,1753.0,1371.0,307.0,1766.2922871165204,2193.5444725197763,16582.022049857307,1762.483674966933,1378.3310280639487,314.29343476651366,1752.6711421032755,2092.8879995278353,16567.464817719352,1739.0236111209933,1397.5378606292963,307.6935880462038,1784.872014669384,2160.273224083443,16570.475878132595,1765.7866726200666,1376.4301205695676,290.1452985225373,1765.4433443005887,2041.2669381930468,16477.777143661224,1763.2295172725783,1391.5959254030138,314.4184135327145,1670.3655390310146,2212.951525044319,16638.164558400676,1747.2122082125638,1368.501539691058,341.2472320772705,1806.2812937578178,2077.6510604648192,16768.796988819035,1753.4260735938717,1339.042978076476,318.4959707615018,1980.9618195179446,2151.8645380666903,16623.755774201985,1744.661961168434,1353.2787106418589,313.2384020319608,1840.1896074610538,2028.767006652149,16487.89825379248,1747.7193960681327,1376.9379283774322,319.42459409067294,1858.194099567475,2076.105057791055,16629.562535499426,1751.9290474858883,1367.7701008903666,310.04926576619584,1680.2020178283392,1976.2618347506739,16733.205857705587,1752.9030391517445,1370.708748730766,303.42027062268863,1888.9154723654424,2353.3146194186324,16608.945475682325,1734.1871456817507,1374.6766912230403,299.2252779696367
1800.0,2180.0,16692.0,1781.0,1373.0,270.0,1840.5813528266776,2144.428319464168,16659.26738683191,1801.068051298643,1366.4844802045984,264.0280248470757,1964.8169594236629,2070.9156830664374,16626.541265499818,1781.1373901892107,1367.5774254481516,264.6947597831743,1723.0384231018704,2292.098100344834,16739.77672882926,1785.9474737823023,1364.6107942574827,271.7015073166061,1786.8527136415605,2359.6982567519335,16710.54335881504,1791.754076684429,1379.2101514752203,279.8565453566013,1803.7176221755644,2139.886811024531,16761.087600334755,1781.8448950784955,1364.5234735795675,266.8665549976397,1748.070720120866,2237.539986065906,16796.9075149782,1791.8454013879498,1365.9866668090624,261.8523998851566,1684.3804255119624,2208.121004312352,16694.728073329108,1787.1193308195814,1381.1895775055227,264.8510290418665,1821.006307631892,2191.206775364814,16854.178103328475,1773.2333844768275,1385.5027551066623,282.2231562262089,1766.8009386301642,2152.448221392573,16688.295327526786,1800.737197610621,1366.6860766572768,261.41161135530274,1679.333239491148,2151.199016465422,16720.915499559473,1762.724928964673,1374.154112222638,282.6237736841695,1861.4228412498032,2266.981018447005,16777.488400772487,1767.8434648205866,1370.817681234101,264.19539138480644
1816.0,2120.0,16612.0,1762.0,1378.0,282.0,1782.8848378378354,2238.3773691510123,16593.32505070562,1756.8281204678842,1382.2545745178331,278.3024866613108,1793.8693253963545,2233.5978042390943,16657.354346219785,1761.500079951449,1372.7404461224874,287.37179414193076,1628.7886522250806,2222.9295087977785,16784.694570624397,1782.6911198581572,1386.7694916756639,286.75588911250946,1999.0950744845131,2053.989098522298,16486.62293124784,1764.790417074438,1375.7896194177677,293.90897895393255,1721.2324146829935,2183.1495431945973,16493.485064749264,1765.3614596472828,1381.586585288701,272.84775241493463,1797.696450349524,1974.9921069899592,16534.157616234068,1740.355564791457,1376.471050846947,267.1791582359517,1693.9773791683647,2257.7358759240046,16640.449113606457,1762.1593901208764,1384.2373972671312,273.96501821354144,1801.7865619235342,2088.7756744558405,16649.40510398094,1764.4254765726862,1376.2181081426065,271.2641514883056,1796.4703466266158,2081.871388194197,16642.95152658923,1746.0360882583723,1380.7994292959368,257.5413446210619,1919.416008787717,1965.5118399999656,16456.44515876858,1754.3794138703722,1380.5946881372734,295.66325893460385,1691.9110747846187,2149.1792979258958,16479.115536758713,1765.854665760196,1378.2688593733228,281.4699705299326
1800.0,2108.0,16672.0,1743.0,1355.0,292.0,1957.2382141021842,2154.4847246520803,16723.205665936046,1743.6803882396018,1338.5635953092194,317.8836217246644,1823.8643223062325,2068.030790972279,16699.454324451483,1744.2269386658302,1348.6661407454596,274.6355950264642,1712.2511400477551,2342.22951349307,16593.49023724924,1746.5619619769275,1359.56611323532,288.6209743377363,1776.6530004670246,2190.3556712648406,16700.056572499194,1748.9029226393618,1354.6833904466084,300.8656117315744,1888.2452568040253,2053.1476518434774,16723.945417208128,1737.0116440236511,1353.9593077889108,287.99098883928656,1786.9394221757912,2137.6596134811057,16783.561365099886,1755.3368354274862,1348.106480578578,305.83894325659145,1681.7436255181126,2274.6790459834465,16583.172379483487,1736.369740443798,1348.5594701224204,293.4620470474975,1859.607523765952,2214.675048233302,16518.590152904344,1756.726778982607,1362.0999231532899,287.4643795237344,1938.5715964121218,1883.043979848265,16693.689720895563,1750.9554475800533,1345.6641917787606,302.69135914230793,1874.489353015377,2020.4284525287198,16729.802588521576,1753.9313459205716,1344.4084627429,294.31945373783594,1801.2367977120953,1983.5260653327218,16682.597628839594,1745.6368938507092,1360.2234164829426,295.5685696298037
1824.0,2108.0,16684.0,1780.0,1338.0,276.0,1891.7274085176978,2131.6739846182672,16602.35005467095,1772.4427334435902,1346.81916433826,258.80352692337783,1746.0261686211093,1988.8364051139965,16720.43436591706,1785.3485597974127,1327.1907336614927,272.7697403724503,1685.7134742306116,2201.238524354711,16768.016509650195,1782.8034352431416,1336.0267735172465,268.0405876946672,1840.273992213552,2053.097902890027,16658.144831244303,1779.8878412682877,1329.131012889939,278.35518092634834,1827.3587228251374,2078.8531581674374,16656.251918691905,1777.0525541614022,1346.997208951143,265.63893309263443,1589.512228188751,1952.7539075598434,16875.02914092749,1790.472983089919,1321.9252202331932,282.15858048414776,1766.4333702146141,2007.9069277050726,16703.67904355469,1777.6134307497628,1343.8068108118086,278.2226220134243,2094.020782942999,2040.7563356031685,16676.961539878852,1784.038063047487,1324.0217430845325,261.00468828439995,1813.612169299794,2099.8204512751104,16882.901190353412,1795.254291728293,1334.758894391695,278.95470424963185,1960.6283413690783,2057.3630860919125,16678.624164804485,1786.4676170090936,1357.1243878844803,262.62278035105527,1791.5538055807867,1857.4795457687292,16858.81150966059,1768.3630579622234,1328.5703001484976,266.22388150165057
1796.0,2104.0,16716.0,1775.0,1395.0,232.0,1615.875461398454,2045.0493652859966,16821.15437414904,1778.636227300512,1389.7443638720133,238.95758166720182,1775.4332694790503,2055.965568661688,16641.65728442271,1779.1337259561672,1409.5612762670225,214.86400199687566,1861.735806513522,1868.5108475103432,16712.105906606484,1769.8099145944502,1420.2369449904352,240.41695405759756,1697.3471107199985,2149.198495256977,16893.860841034864,1768.1843576173349,1399.8168673058424,227.94831033688882,1530.475666766936,2175.0190699244336,16596.235643351938,1783.3222758025822,1392.465782591805,233.23484715634476,1746.0744057454942,2141.561197745828,16867.959235895833,1775.005964212398,1389.2676880056808,224.32642788994107,1746.31955796609,1953.3572257552635,16880.524560488786,1776.5531946751871,1392.6706951764631,230.07375925549866,1765.627785013836,2131.3840195800567,16506.696176764486,1775.911357523725,1386.1854798744018,238.02666118379835,1797.8531839904317,2194.6115084533176,16673.946368205732,1783.3953202008024,1394.222516943414,233.4888486016598,1877.193905145387,2073.612520319381,16783.651336798404,1752.179808220111,1402.250276139027,221.62797784938536,1689.2922970213015,2037.2890620319258,16705.799129407664,1763.670259425828,1403.4495099291446,228.34391213498236
1808.0,2076.0,16688.0,1743.0,1373.0,270.0,1680.9580693866212,2197.8205277200827,16646.634303585266,1761.1480773853234,1367.7461908641644,275.29875219255763,1697.1446170879271,2128.399346824126,16754.027589153062,1742.6833055716718,1376.2416573444016,251.28646304401488,1792.7253014505625,2190.7815090520635,16573.529064081402,1727.7210009079863,1381.2803246006167,290.0173376942303,1847.0465818926066,2119.251569905907,16792.296997218855,1720.646368826982,1364.0722612690176,278.9905250228899,1763.0232421853575,1926.8172823319849,16701.7324333699,1747.3858393971298,1379.688645136548,265.8030102956892,1921.9819088939946,2203.9381363726006,16771.82376883169,1740.6035930645835,1369.4214254707472,271.9753783633897,1738.4584499755251,2066.962308291242,16681.82348014763,1764.8959695156645,1365.5903517668396,269.44000505649734,1760.180803192425,2084.6471434189402,16654.48848207676,1721.2634655905554,1391.3034962418226,263.35839428906877,1766.5638289497128,1956.7407817774215,16818.74973919997,1725.2711432412589,1377.5066705457798,270.17541644520094,1759.2573054836014,2185.3502938150386,16553.012513720423,1755.1671537714458,1378.7271663595093,253.32351172957343,1699.7379222859695,2063.472859192123,16444.177164837514,1736.0425405683989,1374.0434736935176,273.3807060364835
1800.0,2120.0,16712.0,1743.0,1357.0,252.0,1688.0800125154076,2148.974027099293,16776.26038941756,1767.2377585618963,1342.5287780420242,252.58819531853925,1717.556140648053,2227.780608020109,16631.770660607326,1748.4606683644156,1350.65609836232,265.71554285738614,1797.0720152904307,2325.4345725464077,16739.827147679855,1725.9820995452542,1344.1847447205362,252.65164284270392,1931.2606873483703,2034.4200950407362,16841.75596488183,1743.9046632863187,1370.785146121591,258.9993862308741,1837.7302095174666,1977.9877186067206,16708.28340587826,1738.5824410824926,1339.6388744530173,239.7096803434838,1638.6263661858375,2124.8360710963516,16659.88232283373,1743.6332158022592,1368.815025491967,242.6566874424419,1873.913262182322,2134.48097847514,16868.347610131084,1753.8942379678049,1342.9242163996316,262.90291873456806,1777.7739193290176,2168.4027971123724,16793.908227500175,1752.9659125163942,1351.5730391941693,244.2650402028659,1666.0259179773357,2179.2904980660915,16734.35599129674,1739.9473673493892,1334.1967420350788,229.14185154214968,1667.7373521983434,2094.7214295229232,16542.00348894944,1738.6829840489909,1368.214400219589,254.54454778172789,1821.958292951793,2235.485752408143,16775.44667364158,1752.0143743506733,1375.0295134629473,258.8883129530422
1804.0,2092.0,16624.0,1735.0,1369.0,291.0,1714.124406446407,2140.3431232426715,16700.42547204558,1748.8533145524461,1369.6695648364757,284.0900201632891,1724.4168313149135,2064.538774762067,16863.149392372135,1740.637748269966,1380.0196009377437,285.85485787427024,1785.2128871639452,1958.2428718976992,16683.81248026319,1740.3413596634125,1362.8755793566074,300.30395481068854,1819.3826127136201,2044.368270480274,16723.66824274056,1739.9410280042098,1361.0326402933101,299.57228966384736,2018.4252050439495,2064.0433927721056,16563.320557678715,1702.3740160446437,1363.3010366362514,292.31895930765046,1895.7321076886308,2064.619177613488,16646.38987133866,1729.9873721837191,1356.8915417254061,290.89830077929554,1719.9464759621526,2121.1009785359506,16829.224896485513,1730.8287155570476,1371.3805026870973,307.569329142442,1931.87121266801,2164.681208324963,16585.33309685661,1738.6810126464766,1369.7107181309411,318.2354211363656,1750.3841783353685,2092.9431462821753,16588.559387603822,1744.183728237772,1369.2627913454266,292.02983731493583,1879.8314881944382,2220.6020516773583,16554.105922340048,1719.3867623952956,1360.7197965019202,291.3152932191398,1881.6728791481428,2160.1779436465954,16661.334242572542,1752.1932860977004,1376.0466550003714,293.9583606540782
1836.0,2140.0,16700.0,1812.0,1358.0,283.0,1791.001575383023,1941.719830173859,16614.650047929543,1830.0036877952084,1347.2965954271936,293.07757174712106,1679.9773756521652,2147.3638140299668,16668.375391126185,1817.8729866772567,1338.73860619885,282.69920014769104,1809.8750085966085,2240.6603291453152,16567.95422603022,1820.8390821386863,1356.8741712034616,289.1771111788942,1910.1184839566001,2247.225856452534,16652.84752784138,1800.097072286302,1341.3564126139463,291.37632528522073,1804.495383329063,2096.7278246850196,16753.288509223865,1785.9172086666304,1364.3919466534285,278.5410656299869,1807.8070946014834,2142.3978560385035,16688.628290977944,1807.2614837149515,1359.0287546211505,280.18880175925,1814.3191465511893,2158.3339200791575,16567.50717442795,1806.9110658522673,1356.599398450734,278.3214763235317,1717.4837256597864,2044.641493208164,16587.82805079785,1819.9014927742053,1361.0894435595285,297.16154368052236,1854.5567661122627,2192.675390967393,16572.759277743437,1815.8097090440772,1353.0576355908986,297.06726062023165,2095.4364543763645,2085.228532102066,16777.91541486139,1834.9252422117902,1367.6218674439122,290.402766376325,1986.466910059016,2107.481013216541,16728.091393949537,1794.4977355029591,1350.7396928863518,275.1407034320787
1772.0,2136.0,16620.0,1747.0,1377.0,284.0,1777.3360029819892,2278.766359023228,16472.813950022373,1743.4908342672932,1375.5203175593442,276.62723952306766,1768.303565106527,2213.7633845667806,16544.972635969993,1750.9438437365777,1379.108336990668,273.55343855728245,1668.4903648498894,2070.705032521645,16630.813453843577,1742.708251576568,1385.5997595435072,280.5725415961485,1636.8300550056008,2171.542978146644,16587.126490750885,1743.058105181194,1379.1641448111252,289.6954999316481,1693.2678764657828,2144.6605733389742,16537.118230703705,1734.1838154655502,1376.396614345276,304.74880047147866,1718.7937301359411,2157.4307858815177,16797.8665790474,1752.6246031843666,1382.3332642009116,297.339534040606,1716.6032331715264,2103.394998711012,16602.267509090474,1747.1446328518873,1391.9062554334198,285.36667067928033,1636.8830621681313,2006.4251405805073,16584.802831332472,1728.328600202422,1375.755182594373,273.70928929883286,1734.6891068735772,2261.1747569593535,16458.73818445676,1734.765506506151,1384.192479641697,284.2300382508448,1711.8738996165305,2164.412303014329,16716.083384504997,1722.1022729746858,1380.5790969830844,275.68969619248224,1930.0528735247822,2053.9867918261866,16626.762070286943,1743.9537420374922,1375.9562068082776,293.29767250025697
1788.0,2116.0,16688.0,1708.0,1354.0,317.0,1751.864986537041,1892.7170759892654,16540.38428812885,1713.961069671151,1353.420649449329,316.63096866391936,1863.6518333671415,2035.2779841252718,16782.703758093085,1714.7869387861876,1363.652048397041,323.81458811442155,1826.5529265934733,2255.14554915378,16736.411437431318,1709.385530006543,1364.902410582872,322.669198753114,1765.057000876756,1964.8197592625072,16772.538331478714,1707.5572341833056,1347.6317260319267,323.14383805150476,1874.0838042181636,1975.3811784205625,16557.659108040105,1726.3051915729552,1376.4742309412543,308.63295369190115,1859.791414957457,2056.8836540934567,16800.995818788906,1702.0378733830703,1348.17164189825,315.9467905094892,1625.209292615596,2169.3095604809105,16649.681743476733,1698.161600757749,1348.0241894746794,319.89096417517163,1771.6778880972925,2102.7347217209804,16635.933104186217,1706.1675723816045,1344.8965176114752,319.619847310644,1590.9655463616416,2021.578558811514,17027.792847430097,1701.5789913468407,1360.5983841378047,300.5033363522246,1711.8815563042178,2198.2579548017275,16747.266119710093,1693.1014476006376,1369.000533482359,307.3089689629569,1656.5580161717792,1991.4411263451086,16705.8155321186,1708.954498804806,1351.6517685980348,306.6934108457041
1796.0,2124.0,16648.0,1738.0,1371.0,303.0,1892.081114441893,2069.101882211144,16514.178055641627,1755.0572677248588,1371.6373038412212,310.77917860332656,1873.883660195545,2134.185058772699,16542.87301673321,1717.517835298496,1374.4572435866519,296.3242351519995,1645.496592062978,2173.5178633530845,16503.431780165523,1719.4105387685688,1375.5017363059596,294.32422136828495,1764.0452169838152,2190.6036654895906,16741.80432124954,1746.1532711287455,1362.6624631836137,292.16951514797586,1793.993342953444,2121.4967280796773,16902.623147155995,1733.2807267413327,1352.533244895255,308.0567961043413,1733.9205349908882,2157.404002550895,16699.17587469452,1721.63876421859,1377.2638791034358,309.0266563672029,1871.2669698160057,1966.9394174840659,16637.486381907285,1731.6692796278708,1349.6726624914136,315.47742826267637,1841.2610725353434,2182.8721950026,16647.203949122242,1751.3364373492807,1386.272075544604,306.2145309692364,1720.8814893918823,2102.5755052951567,16702.255637105536,1751.1799196432337,1363.2266252925322,294.36190091447463,1964.5246806539185,2110.9690156409465,16691.89778092648,1747.4609123767682,1374.0354545311613,298.256927316498,1886.6993457527649,1989.7278554285035,16484.4399981392,1747.2995289943394,1371.1154913028263,291.86309739347286
1816.0,2140.0,16648.0,1739.0,1354.0,278.0,1991.4492713199493,2241.8147418925255,16415.687242322645,1727.6228020805568,1360.3858163300138,262.0845785076812,1860.172200810452,2143.0187863794195,16699.65555685846,1743.8900307545293,1351.9323779442416,284.77547327732475,1932.3426556976883,2103.80578919625,16588.47605905931,1747.8641401205405,1365.8308412878516,277.3322750660901,1673.6562583406132,2008.2861688652551,16529.256203877514,1747.9629929874093,1364.3366746671343,250.4227176571193,1954.1845941994877,2091.9272940365495,16641.485118827353,1736.4801143776158,1354.575998771826,289.0933805488383,1564.711467914026,2090.5986929361934,16725.3748394714,1736.878938689808,1339.4176608723044,274.6730249577224,1848.4472388828424,2175.8999694683775,16784.296537823062,1746.99135176069,1343.613489644223,271.9327166760432,1880.998467288721,2239.8905917470743,16641.700237262678,1740.9475909961134,1359.0087166459293,268.0246510312051,1842.7899492509302,2038.7515608548902,16628.82643065393,1733.9573874244666,1359.8406560535636,277.57208589885545,1764.4227515861626,2007.1691234751938,16730.740462451322,1741.1284951828127,1349.3237657634397,288.00105076764163,1843.069714384665,2204.3808812475827,16714.633891596604,1728.2422611490429,1373.8104687498753,285.8095755739039
1744.0,2196.0,16684.0,1778.0,1372.0,313.0,1838.1999691280691,2208.5219262314135,16571.416350391195,1775.0221985267456,1373.4065874177259,310.6355968288096,1764.516355666856,2104.342797322158,16707.441422102147,1778.603744638434,1373.3961508356372,329.9279322638432,1662.1391039944335,2166.815985549927,16728.49237076765,1758.8827580817633,1379.5897624666445,310.723589218861,1784.4936280794589,2384.7073600312924,16672.236440586275,1778.1045202264518,1379.970155130577,340.1363114785609,1922.239144955615,2138.2324103312385,16713.863013982453,1778.5203902240835,1370.3809977964822,321.7780616207333,1771.700222680447,2297.7783695394237,16668.40155632523,1791.4321746630335,1384.1746415349542,325.0425470006519,1637.4715901062104,2248.4602592228166,16668.915874855906,1785.963444263287,1396.8182872635398,329.12412587269637,1684.3374500955044,2052.691074569103,16688.675270929,1785.9335480927373,1363.0969560928145,293.89194348145577,1826.5377714102642,2146.752372653136,16618.101947662213,1787.9217493188917,1382.8864309549078,321.0721145103301,1705.8370288500137,2144.7879417103836,16721.633494333983,1788.0511551944248,1367.3788227056996,292.281899773462,1801.2312917150969,2321.775202650878,16819.318312840904,1779.498283166442,1344.5450082386967,316.13751376334045
1820.0,2048.0,16648.0,1730.0,1367.0,255.0,2065.6350698935767,1919.3465460563295,16796.99326613075,1724.3495269751634,1394.6800211381,244.29349019375448,1768.0753224171046,2136.4702255104603,16650.204795608635,1728.139438478363,1397.64453557592,258.66225931242315,1726.3171430609952,2161.8828492931125,16831.042300375004,1728.4084741418576,1347.418629165249,261.59368212639583,1937.8868338327782,2068.005829543862,16665.59381610235,1734.533558556286,1368.801089156611,253.33063337700528,2052.6920692799017,2071.8685582918188,16656.566434381035,1738.4162294110288,1371.6575688386613,233.7442698499866,1778.718553182544,1927.622734152222,16610.911095855387,1736.3211305855716,1365.1355508829593,258.24748500268817,1877.279957946337,2201.946875197413,16730.368502484278,1724.7381517153472,1379.4756479169919,235.05390086089125,1741.481334304874,2033.969675128325,16723.616370947824,1729.8275846887427,1375.6469465514945,264.55554928689037,1728.9623886885097,1987.513315803697,16547.2901337061,1731.6846363323873,1367.4938595823137,230.5962352768933,1850.5014548706881,2082.547835099401,16742.342504169486,1714.5653215275252,1370.8160587057048,261.39508495598596,1841.9900588841751,2262.868895001147,16621.296779109514,1726.0069941726076,1371.4126262701188,255.2222614212901
1784.0,2100.0,16776.0,1781.0,1324.0,288.0,1740.593901410248,2279.943127144146,16904.707283755513,1782.6295886494045,1321.2319044513229,304.79908097928046,1749.5885088776304,1766.474614656288,16739.166458625936,1775.196886612693,1337.028754057697,296.234184893031,1674.3141423575476,2093.1169649977264,16710.261000215556,1765.4871412267419,1320.9492257272357,291.872597087219,1683.6487678131607,2171.7242269212156,16821.24314155257,1785.8315413507823,1307.9926236915028,274.1716381036276,1812.6177211486163,2187.3000499760287,16760.28050668214,1777.8464027667007,1306.8071320235201,290.1755457124339,1849.8495025671048,2215.9252211486055,16833.372096631436,1795.2027184038202,1322.891179990902,280.18982713732,1845.4180315712879,2169.190073187298,16672.438486701973,1771.6166719040623,1339.2917169917628,294.97119120861265,1556.110453507431,2031.1375831085336,16851.187705732496,1785.9976718909097,1329.8914290075024,282.10579571688226,1671.325993789978,2161.2499482922367,16920.098851483486,1784.989640024501,1309.345912908726,288.0398652871434,1809.531445902392,2068.974994874819,16697.02852787779,1785.7790682621007,1316.7939845722917,277.92362134510427,1645.389672226751,2038.8105256900467,16933.536090741534,1780.8706513261416,1323.5912066080357,279.1944490378045
1752.0,2148.0,16768.0,1735.0,1358.0,301.0,1867.7749776712374,2348.459874067513,16734.09025407783,1740.3024681529553,1347.9279827071562,310.5637325450569,1714.845565659367,2126.13649993524,16774.83761199374,1722.9775600346486,1342.6026690607564,295.0040018758662,1622.2502820132167,2282.8432646546594,16771.592628696253,1724.1449309994687,1357.171598835179,306.4555385380597,1700.2333228692833,2239.4519213097433,16710.70054129622,1727.8973537398315,1371.3486769071717,307.70324495817823,1719.8676647772695,2160.198858989956,16789.04710590755,1729.0485695498253,1351.6523004645526,297.35693373893236,1802.2938829723641,2142.765740699611,16637.24684344468,1745.9766318088182,1368.1149365922706,302.9767446703559,1818.0595469307507,2265.853037611157,16931.02933253527,1717.538668963966,1365.628988399948,314.61999835411723,1900.019633482206,2002.6773727605898,16813.03280309126,1738.0343556359178,1358.9918443823287,306.4855571822704,1740.2226159397483,2226.9411568997525,16724.53159718917,1753.5599210724838,1355.4370338163471,298.58517982381386,1878.8481886386,2274.576490322941,16802.099822529195,1737.7932949801643,1334.2662547221428,311.3484831806853,1996.9518526602762,2145.2852550725047,16709.32977110985,1709.5926637256453,1359.4164670371308,301.55148729762914
1796.0,2152.0,16736.0,1741.0,1339.0,272.0,1984.252178203649,2097.9377942389237,16955.513128182818,1737.6342214310148,1348.2754309204925,278.8189916677357,1853.8309454250884,2048.042342804019,16582.688711678176,1743.1079107431508,1337.7065583096296,267.3538146614762,1759.9157775065635,2155.6107152723475,16693.928123085494,1739.6005177209197,1333.4583379563953,274.7456934566529,1760.1645891472203,2222.4699043810388,16862.317334780044,1729.524049088064,1330.6393292479265,279.1275142243392,1792.996572040529,2291.517691457442,16839.08111464587,1745.1575124540846,1340.2481619517298,254.30072344325018,1820.4018022583252,1937.1234007246353,16667.943263873392,1719.918009492246,1326.289246784057,297.195576422301,1734.667424858874,2136.424581603631,16712.801811273417,1724.6441897210693,1348.0458657581582,267.1935012247382,1916.1126872837576,2117.6525403105916,16576.326533105246,1760.0968543349177,1336.882081770811,277.3780321267668,1880.174635988901,2091.6764714738274,16928.341952538904,1734.045760344386,1345.6585643742856,252.43476650585544,1809.6430995909423,2006.9635690895955,16715.59607320894,1742.5930756967196,1328.6880930198204,282.9137023805625,1658.5911684442115,2116.0332070693735,16724.05530613112,1749.349018102025,1333.4061484339165,266.1119128752883
2448.0,1068.0,16576.0,1891.0,2146.0,-8632.0,2324.0621029363556,1088.6739611804544,16491.695548198102,1901.1177402091391,2141.3187870140478,-8619.329983463178,2449.825622203263,821.3261652524036,16601.326654934448,1881.0405786104202,2135.1002006249796,-8625.963726874561,2436.4958137511644,1101.0448020792226,16646.2002192262,1893.113925647721,2149.351651671933,-8636.895245780725,2515.4837060794916,858.555457154873,16352.133314576406,1873.4104203347163,2138.9246668677088,-8631.162302329034,2468.7818007955298,1198.7453001126905,16380.119368976124,1886.8914228708222,2151.62451682722,-8637.046348676371,2454.8940948168156,1190.1790752525883,16868.558047077433,1893.587093787017,2148.330189430691,-8648.920102862814,2319.9548734520977,1064.7745348779117,16666.05779286214,1881.0787903034416,2160.694163015916,-8636.739476894065,2597.7427757439254,1250.2399665064113,16652.103450129136,1898.5691066933343,2166.418496490667,-8630.305829353887,2510.562117497224,1028.651780340376,16504.565100088133,1867.9656767246338,2150.5611890665627,-8635.529951033204,2551.5619892111295,1143.9449714089574,16524.420954133533,1889.7221532719218,2134.8731116037625,-8618.23493495472,2310.8262117237687,1044.6230839034622,16582.205367720522,1880.8197233759404,2157.903243894593,-8638.98421303582
12436.0,15996.0,17976.0,-1758.0,-2907.0,-7552.0,12295.882498518838,15833.592084598893,17919.168529845927,-1764.3764937180306,-2896.609960093219,-7549.373167636855,12432.217881435257,16103.438476076535,17964.77661985063,-1758.9230687954405,-2891.2453098082474,-7549.581830754053,12200.562297813922,15959.091537068438,18019.44803488579,-1745.0536747193007,-2905.1542517865337,-7533.416450211651,12343.446622125113,16011.893039194098,17888.663638738537,-1750.5613568770088,-2919.2757409314772,-7554.275395820396,12325.899658403223,16010.667931990283,17963.063200237357,-1772.5881612385276,-2923.2058113442195,-7559.122719350528,12463.692274262112,16079.562835222154,17919.429602526347,-1759.3031600516533,-2896.1704538163885,-7536.077201199988,12249.41649628459,16113.408175678136,18136.31972755319,-1743.971448079603,-2907.8564437036953,-7554.135706616089,12349.07337355161,15782.138719385304,18016.66706923687,-1744.1316440866685,-2925.585950189468,-7556.794003355299,12383.319006910308,16121.278796376062,17958.928350702095,-1747.1015960458285,-2908.0511875640605,-7555.491734304587,12433.15788402271,16012.961931998823,18079.94874584025,-1748.889190278776,-2908.0593779431942,-7555.621542330829,12437.132295601561,16011.821369234127,17810.555705215094,-1754.9561558723428,-2895.0132943182634,-7550.121102705302
-996.0,6184.0,20724.0,-116.0,-1062.0,-3252.0,-993.1641686836822,6154.238673028098,20776.71592469506,-122.25902886701347,-1078.671182508431,-3264.4114348858284,-1149.1525290797626,6400.855021606049,20549.232868877443,-118.57198129282689,-1064.4858335006295,-3239.9964540368014,-902.6375366300068,6214.947265500331,20533.135989671457,-104.78337615950805,-1069.3532621600668,-3243.3768703020214,-1050.309944299566,6220.369806936016,20783.280502573758,-125.7121694194325,-1084.0293198500892,-3244.687047774663,-1091.8889188294443,6313.521329522629,20651.89637534909,-115.55932999411313,-1067.677847674048,-3241.761268218505,-753.7554982194629,6233.890307538956,20609.29776014728,-100.72006638323202,-1067.7011972886298,-3253.210269928902,-954.9290289361392,6285.382050990569,20666.284984217564,-107.22086794404105,-1038.681411097779,-3237.930053436257,-1075.6009648794916,6213.057867471454,20757.249302310527,-123.86584795996075,-1060.4583306593108,-3250.428145492509,-968.4241539348667,6160.947541096113,20797.448503024425,-129.31124867829917,-1052.1429459866085,-3255.7265352090753,-1050.6063204052193,5991.530933291784,20674.818137306764,-117.74482123176662,-1058.7179687027094,-3246.0252535540712,-1000.7818891399376,6156.448884811483,20625.664441041383,-115.68951030712255,-1052.6913350936456,-3232.1358925335862
4980.0,8760.0,14328.0,-3116.0,-3162.0,3502.0,5031.99994776847,8857.507159081988,14312.742390942845,-3109.136453055912,-3145.1125023091126,3489.5680530558457,4971.141881751913,8849.111880004519,14301.267903831396,-3102.1144200317503,-3158.871757961773,3503.6738470311884,4941.21579120405,8714.453259195261,14469.67590841563,-3095.9574520193446,-3155.913739484425,3512.8281335456227,4925.085359844585,8624.506890828257,14267.000411430847,-3118.364767121382,-3135.9856286388,3506.7603650121264,4856.28625310067,8753.176162303347,14228.692901875575,-3145.1611898409783,-3156.991496526368,3485.960444757354,5129.195643020399,8823.45928529747,14304.74013549719,-3127.199933519926,-3157.505875030805,3507.4334418675826,4891.696385450825,8856.764424611803,14405.189373677356,-3107.7802779279314,-3162.309695280102,3497.0564198550455,4877.199373735405,8684.937619562877,14273.456841952935,-3123.5258037817193,-3164.3701557717704,3504.300192083969,4700.281401028974,8670.09184196122,14435.842712724778,-3099.5766524734186,-3154.7930525015845,3508.9375942928896,4769.7483859364,8678.396503415865,14369.421750140877,-3121.361380965951,-3180.2069242169455,3497.177283845404,4944.446785612967,8672.184700584461,14222.93573972386,-3120.74982899435,-3162.708427940928,3496.9999806232286
-948.0,14116.0,15896.0,190.0,-637.0,7544.0,-837.6664585550452,14119.598972756898,15954.252667148128,192.67571434870106,-645.7450915925057,7532.243059800373,-946.5767181597645,13960.08809944329,16001.980111122493,187.2224193512446,-647.116522830299,7537.960052502637,-948.6108542973678,14031.552774459216,15825.674206349944,191.3073246209574,-654.7499243886193,7544.966572569647,-998.1490086479636,14073.540944746212,15837.934764008969,196.2081157142751,-632.9614530198112,7560.565366910535,-912.5066538506226,14200.528340515235,15889.717931453852,197.98200675392712,-624.1060660635444,7566.702299653931,-787.9817757105479,14149.521085810899,15989.551620782986,197.2468235630363,-650.8305047248318,7531.611160856834,-1009.509017303636,14215.339792757904,15728.456024909598,186.54403153120228,-643.575233291512,7535.668655187343,-943.3223546465689,14006.33922142477,16015.590087874634,206.42554365844197,-631.6945252132253,7540.417433480553,-835.6624291492149,14139.931856331938,16091.709235727589,189.47440345631182,-656.1982169940308,7540.31306091562,-944.6697155470547,14098.436438273893,15934.256937700058,195.71051592383566,-649.234348732895,7565.62634113964,-957.1746857062801,14316.410643976835,15936.852794045124,178.65672743188296,-636.7988436617122,7552.590038357491
-1832.0,4176.0,16948.0,2955.0,1729.0,14970.0,-1890.5430119635655,4264.037096525696,17031.28710772581,2954.339283724745,1752.926113020467,14967.732979120285,-2107.2164863690077,4011.2869351615095,17072.593406207143,2958.097621059092,1725.890610564146,14976.09143090914,-1914.9929736329755,4289.231763061186,16886.284607192058,2937.729527087487,1736.5188707520065,14982.092329786017,-1905.2974040549138,4154.78938052731,17089.233888486164,2962.4077337225795,1738.0447024909886,14969.25435474565,-1851.3191766241848,4184.732403150819,16806.14773999302,2962.0178795313523,1739.3167176206052,14958.74946452007,-1604.9400807987986,4248.211464270576,16906.922952632467,2970.532069813055,1750.9119955188744,14975.229306890062,-1766.966835332872,4269.394776630148,16935.21722265513,2948.3452969361906,1730.7638023943882,14945.146348456403,-1756.5753395309948,4128.14161607567,17151.404224576,2961.1222824653223,1746.9072114960236,14968.824094865868,-1803.560536231434,4434.243978245257,16838.859170978918,2952.759347204707,1732.809209470666,14973.478437193186,-1889.4494941601258,4108.543342526204,16881.041033873087,2958.2423471936345,1718.0574417606424,14962.013728336893,-1811.628902273944,4074.637964387259,17025.480473070224,2958.380788758888,1728.6859774955792,14981.28324053009
-460.0,-7064.0,18092.0,6636.0,1252.0,7849.0,-340.5367001068777,-6938.511946105035,18156.707850224087,6631.424056121788,1261.057707761882,7859.715575916814,-433.5554081185369,-6971.8110619389645,18056.776714789088,6637.51091570021,1239.8287525100725,7848.224472709972,-446.4670384373527,-7183.546269045154,17998.763196238546,6638.600322497368,1256.8770331588257,7854.132539900068,-532.487159421468,-7030.241117325852,18103.126456745464,6631.101253991058,1248.46750870676,7847.021910487028,-421.523928429847,-7086.103614939878,18195.585636116404,6653.003611267262,1233.5407863703056,7825.897512155003,-455.4860852093476,-6965.2434376466335,18171.889200678943,6651.291522642849,1240.2930773702517,7864.701314200424,-330.0256983209636,-7024.060760635709,17955.7580523676,6633.771561641924,1241.296517671162,7855.897964778146,-492.54687539405165,-7006.603310824175,18240.06096847688,6641.680193503527,1266.1822573857316,7852.684382749758,-597.4621933568108,-7023.7261511187835,17913.112778264713,6649.131596298171,1251.1006242803628,7850.573970206207,-516.0660270816775,-7079.892665240065,18054.63847213352,6647.580642224934,1235.655045410173,7838.505132180912,-497.4052988319851,-7001.788588014748,18074.737653821594,6619.89421224287,1250.882401340647,7832.676621482946
-84.0,-4664.0,13620.0,6015.0,4523.0,-718.0,7.2234941036904985,-4530.007037759776,13497.429660199354,5986.934314161488,4517.872786400797,-719.9847204637463,61.37257745623265,-4745.3727744067555,13481.607755487381,6036.977329531608,4511.95847908115,-726.2582598515581,-12.902996201018297,-4764.718882079466,13623.131281293106,6009.725986019066,4520.473355830645,-707.7991522052948,-115.16240233204275,-4611.801725289674,13570.283973533527,5988.62947418004,4516.081277089134,-706.9161744019835,28.08012616285903,-4777.371694729487,13666.477826784496,6011.165982551826,4524.814260106242,-714.8705007527162,-27.253200547937453,-4672.649812042201,13377.606760660172,6023.705742241166,4521.519874664214,-722.9924135156214,81.78185706200102,-4617.400906174601,13566.485656943043,6023.8482902068745,4520.516878201191,-723.3965892972332,12.790905667598324,-4557.488758534476,13751.52555754506,6027.93102077717,4529.350982300768,-736.79036689661,-147.41457847807158,-4479.766885495539,13520.582414353697,6022.05627713682,4518.994452779358,-734.6477610859409,-137.37792295735318,-4507.954841175873,13622.1844929593,5981.957247214964,4531.670952829469,-733.3420792105873,83.51568046302287,-4720.99125195125,13664.08519928263,6007.720728004808,4520.644991951608,-714.8818386728735
328.0,-10752.0,15048.0,2105.0,3473.0,-9435.0,186.7460182494591,-10769.9543779123,15125.658321181132,2115.257314123727,3483.0135982889133,-9445.213438819024,136.20823982455877,-10652.197180497058,15148.24263122406,2108.5441954170624,3462.423861471042,-9434.183339076128,237.1633069135171,-10794.5429167246,15038.222271261917,2101.5788447748364,3458.5882543684143,-9450.205393549404,329.9995086494042,-10716.7697470474,15024.485106141463,2098.7334825112835,3484.0392350887646,-9419.359252845352,405.5570155150874,-10661.835486931346,15189.982411921177,2096.109011390364,3492.2810911903075,-9451.728440523457,434.7700028881753,-10809.634017935674,15039.180929201388,2098.893679348331,3480.8250476091357,-9440.599619726232,396.9689922180861,-10801.834344816827,14951.23223219847,2100.76953793063,3471.341774086659,-9427.615402867588,321.898189287715,-10854.411022330924,15131.328579296594,2093.0334546790405,3466.3449219498643,-9447.794852676818,218.26262776337455,-10826.375776817218,14971.626333886634,2112.328862214124,3455.13436163821,-9430.652693763453,247.99082617108587,-10834.927301035672,14944.626538857765,2106.656798695239,3457.3400596321567,-9417.12214489977,351.13790476685193,-10652.926454041408,15030.628926884756,2100.9445158455,3484.312517238697,-9433.147570696981
-1892.0,-17332.0,30252.0,5562.0,424.0,-23072.0,-1831.277181565953,-17189.92078626104,30355.697336866015,5560.389693127829,428.91604071902793,-23072.292591447866,-2048.4515935597246,-17327.182921365744,30394.551041934144,5549.857097003188,411.4436584771718,-23076.566485880994,-2063.0891658620135,-17364.02465057015,30113.139239824555,5558.802281919739,426.5256863454548,-23054.468013177284,-2079.7784428686655,-17332.447318903134,30240.025979881768,5565.13274385529,429.8509545600567,-23079.456325730724,-1861.5064752553299,-17265.368691016018,30321.496817170475,5567.829914985671,429.22790463506624,-23057.546597672615,-1932.8817022819574,-17461.207035052936,30339.71615216759,5564.821038347674,423.54581216876414,-23066.69907121566,-2090.8987901242836,-17317.419869227426,30335.792430563877,5554.813267852149,409.0623551055465,-23073.417125712676,-1927.8474945571324,-17386.132743809158,30219.93206791442,5581.615096820962,424.15514503991653,-23080.05229388508,-1725.01027274514,-17543.619440926534,30164.45696041074,5551.294468057457,427.940875115922,-23071.35567128857,-1906.5241541879811,-17451.25914292969,30445.54142274547,5567.685218554807,432.2813184812919,-23075.555229406407,-1925.7977297072512,-17362.766984674665,30229.175574812827,5556.430374745671,438.69779782031804,-23066.529937995125
2772.0,-1172.0,2432.0,7388.0,-1616.0,-32768.0,2829.219785815438,-1235.6563986203532,2563.49911805479,7396.147882343131,-1637.9434395762921,-32770.53116178814,2593.7629976551502,-1251.5967757697028,2450.6865440106158,7404.541515275258,-1601.7080443454813,-32780.42029931678,2666.8837002144837,-1138.3412822739788,2521.277180929302,7394.30012102503,-1629.5192839741235,-32760.910873823166,3056.8643539961413,-1242.4373243815949,2302.9173850799266,7376.535460367143,-1606.8519461607675,-32753.952024668677,2899.9581019184343,-1113.9654696674024,2352.61207290842,7396.750495506194,-1610.4766207858925,-32774.99202960252,2779.3193225780465,-1054.893892694118,2503.8224886893054,7387.769926317425,-1619.2279638102584,-32769.58454029616,2655.690645133347,-1105.0395410121876,2387.037010233303,7368.805423417147,-1628.0150144999302,-32764.6742281417,2849.677314569536,-1139.1708666668378,2513.4365339632805,7382.983986711038,-1636.7819860376244,-32769.677713057135,2827.6251245079316,-1285.7022618424298,2523.0014925200758,7391.005262666741,-1609.0132155140427,-32770.832696988626,2856.0057321483237,-1216.2729250359669,2308.497185826581,7398.37559921179,-1616.751628755196,-32761.238579054057,2767.0831784213096,-1143.3348148992745,2378.536568339115,7391.512526153491,-1613.0144446083182,-32767.029745055228
1556.0,26600.0,16836.0,2063.0,-4572.0,-32768.0,1491.111352822891,26613.77518301309,16816.330008367226,2072.29831553817,-4571.7886791593655,-32762.484162076056,1602.8201034387832,26553.16475974973,16847.46951657567,2060.588956621165,-4551.454028000585,-32752.56531636769,1518.8897020645418,26681.38322191266,16776.00566524876,2046.7918176433323,-4566.1954016286745,-32759.64650529654,1473.9528137429788,26646.355081418737,16841.00263763448,2061.383051255299,-4569.7493385402295,-32775.526560650076,1478.741927576899,26475.412480009116,16850.87518880295,2071.7746709556773,-4570.919718385805,-32753.4984126197,1643.289024812102,26544.796603949133,16521.685968099402,2051.3594453666183,-4585.069105729969,-32781.50149004312,1528.4903564338383,26644.57933529293,16830.536406843312,2069.290380931882,-4575.204418336939,-32767.84164610175,1589.4591638181037,26618.054159115054,16854.31260285611,2071.2169346952405,-4584.448049899157,-32748.810990812774,1591.6951479146626,26740.22459499861,16868.0462511228,2063.0926600686767,-4565.920318658663,-32748.508716798366,1541.8893018186002,26662.248203366147,16795.95156817544,2067.001529657892,-4575.307064141215,-32766.996121804885,1352.7089713583734,26479.675002300715,16730.28537439812,2054.19881022372,-4571.588505185666,-32754.190393153247
1224.0,32767.0,8972.0,-4398.0,-2826.0,-6083.0,1384.7916121219657,32612.48704175008,8999.320551378823,-4405.35325505323,-2831.9991738561944,-6066.716565490319,1239.301828302065,32768.706723257514,8849.065954975209,-4396.763204910418,-2820.369021002624,-6067.20087010302,1142.9487290663708,32785.17838192679,8954.84263295077,-4408.934988469802,-2815.899390709342,-6104.098705054744,1153.2859967351042,32891.81551627061,8802.863665262505,-4389.324982111889,-2836.8778066944046,-6080.595179785435,1262.4087755567818,32820.17004706907,8928.47212288055,-4414.910525489684,-2833.0726336880202,-6066.265903107094,1321.202671361322,32806.84624230341,9081.81162947397,-4386.7426133859635,-2815.251434690963,-6106.829055982008,1367.2015943159934,32770.89260350836,8891.507581860536,-4423.262060658127,-2827.6095976362462,-6086.316538740156,1255.8144109883099,32830.748939273326,8872.762210946217,-4389.26629242661,-2824.029372305231,-6076.026230767723,1265.2875061202913,33028.89635915758,8981.751943200725,-4400.140053629662,-2823.414824560203,-6080.505507381286,1170.7862946393482,32822.7893318857,9037.358606320453,-4382.831403014967,-2820.4381313135673,-6093.70426219779,1287.354321964664,32559.9266065895,8953.37922460234,-4390.421198472769,-2823.882956627572,-6063.951144182696
396.0,27944.0,1888.0,-8052.0,4033.0,16326.0,338.5736597868623,28033.507613946527,2048.9061775019786,-8036.164024446026,4024.384212410886,16328.003574220362,254.97878557038615,27871.940531077755,1948.656038145486,-8047.395647198185,4028.05671761564,16318.822955433847,505.8689579568223,28035.58524664496,1737.2353085997975,-8046.370521384981,4020.151147786379,16317.074654147928,476.3809546391709,27849.407254727903,1842.2626246603268,-8047.275913086759,4026.5445409461736,16338.082028047998,243.35022965226176,28026.500241134785,1726.0634261457478,-8049.869682933497,4026.6888443750986,16334.303055044928,436.74034960710657,27898.464609808347,1825.0938891846852,-8055.657225821043,4031.5498384527577,16331.55734254424,488.75826033809284,28029.415271741927,1719.37973518382,-8052.254122059732,4048.394985924528,16326.693195108432,429.2111038339815,27860.31766771634,1846.3443183821068,-8044.124149547378,4029.2166335847446,16310.918706046323,417.98226869400656,27986.907108608557,1973.1618315878225,-8051.756829313958,4035.1861254877954,16300.883726966687,523.938416041379,27779.58989947082,1951.0920167600616,-8053.708260018454,4028.513714078172,16325.979316606457,629.7813333435446,27931.7258708601,1950.1497495671972,-8057.560212682853,4023.8236133414916,16308.113994079571
1776.0,7880.0,15140.0,-4636.0,8223.0,23247.0,1862.96809518318,7854.499321418862,15114.23204456542,-4652.2738566396365,8219.271624105835,23252.752394519226,1523.7264854351126,7844.824271851879,15259.14896162267,-4657.596388113178,8231.577256639486,23241.89241543486,1821.134462262701,7827.750721583809,15312.27313060217,-4644.208395556959,8241.95271712105,23256.260572613384,1891.882325198559,7818.915105898597,15116.369804866958,-4626.449656766249,8211.030456674074,23254.535642647104,1740.2349806456764,7688.503177397615,14966.101289913564,-4630.873955998935,8208.581578624493,23243.852248849336,1683.3170701361198,7772.36379261647,15156.489982758605,-4634.666347313907,8228.689565660059,23240.65228770801,1738.761597741378,7700.120471438216,15147.768881876456,-4630.432506158926,8216.940333016139,23238.379870069544,1756.516443417182,7862.428632956078,15262.976700650159,-4641.3937776667035,8218.830510856134,23243.200964186603,1808.0886286120403,7686.688888965581,15229.706757636008,-4626.5771829076675,8216.540870786459,23237.00218623037,1862.0601894630395,7949.144900539635,15356.498392629313,-4634.322610231942,8226.260839978911,23259.930745891113,1757.2105660983093,7820.1189629955,15081.385818437093,-4643.3186337384095,8236.715205714741,23238.414049686824
-4256.0,-680.0,20868.0,-5727.0,3115.0,21214.0,-4169.69196152597,-838.1679093147841,20895.823183300352,-5729.578361148412,3116.499441328023,21200.372596297577,-4386.396392476096,-740.142593970073,20928.968334119567,-5717.839816597439,3104.3648685970725,21216.478664947314,-4406.825328812004,-721.5185239314679,20686.829743210477,-5724.848850071468,3129.104371771994,21223.404970331456,-4346.311973782392,-784.7059554917097,20857.107741535605,-5730.719626693622,3122.7934141345418,21212.619273531735,-4289.411540147544,-712.3953422605317,20866.897595941566,-5731.331046168883,3116.6870602301756,21212.120181022718,-4306.566743337801,-762.4091118408376,20822.310366756567,-5721.66599821239,3119.9178309972826,21213.977144423046,-4329.316279766028,-388.31374183361817,20877.223401693635,-5718.862967521215,3099.273446296111,21201.213179892147,-4261.81937704111,-562.2867989329593,20941.864925710608,-5742.414702396757,3117.3385372980856,21224.996274598376,-4421.859567145498,-723.5964013876136,20994.94213895167,-5731.55321867179,3091.7396626719724,21214.18378206838,-4291.699294619911,-685.4906864668384,20795.837346186025,-5735.164215456177,3115.0084400772025,21206.636742568826,-4192.941092567564,-444.50629785146964,20873.9456781388,-5734.035755820759,3114.014668005788,21238.43358490295
1720.0,-6812.0,16676.0,2700.0,1692.0,16525.0,1775.1525331327814,-6874.703898700578,16576.34121888151,2717.1376210509247,1695.1712030799354,16525.560462267975,1713.4322489602946,-6931.079513348572,16766.887774545292,2698.9417020462374,1680.2622091305022,16528.81266047923,1648.6398719193166,-6871.567118543024,16816.534258303476,2707.1934148675386,1683.6618772726802,16532.197595558388,1698.3436921885464,-6774.733374584455,16749.992443600044,2685.6625782523756,1683.6937729674476,16525.20696962283,1741.780383871915,-6798.948799125568,16738.918028989847,2699.4054104141933,1691.5812595773189,16529.873271952365,1729.1860611102409,-6641.338630739591,16901.399392159292,2693.5701288951673,1684.8383505824975,16523.506872223526,1768.7848758177151,-6903.959573767867,16694.46931545731,2703.7699153140607,1675.477107336156,16526.78387126813,1740.9696616143895,-6814.533798720695,16672.210010237497,2692.841702144305,1702.7301089295752,16519.46225094725,1641.237957138106,-6786.033457675535,16649.100377360854,2705.5421435526123,1686.8330821495538,16528.46417124084,1781.4844556475914,-6670.759960284663,16725.344780580268,2700.215475651928,1703.0879474319977,16525.993046356776,1655.3161865365753,-6808.83091508835,16613.175640320504,2704.300343695807,1701.6165137564917,16532.45544586605
1396.0,-13672.0,19572.0,3278.0,2705.0,8543.0,1275.0289265329484,-13765.200908970266,19624.483373820643,3274.8364237560136,2712.8109329043014,8535.241561521683,1409.233946272968,-13712.395398238323,19694.135637054456,3273.295897550587,2703.7762675802405,8552.077121506432,1514.1032956753677,-13683.227233948668,19647.33698406824,3281.19135573709,2691.413552468538,8516.846214781472,1324.86521862543,-13534.577771890157,19661.5814839492,3273.278637166389,2708.0662823476378,8541.324272540205,1208.1793176273004,-13756.05009061329,19600.782565385936,3277.704245973103,2715.5329316646594,8550.196367030676,1263.5102762708161,-13560.694696198074,19669.81793466055,3252.59086674396,2691.433955789635,8545.778042508791,1250.012624922813,-13871.120377566886,19603.901392510394,3264.9746586354836,2685.6083479499403,8543.997037815085,1482.1240662625205,-13859.638500899237,19578.11951862734,3291.1303381101943,2706.7795121222807,8541.412763021814,1329.5982098981115,-13675.116181802923,19714.05496886428,3250.896089546839,2709.2072970247555,8551.113176432198,1423.836599848731,-13637.995876853272,19404.70210103097,3277.5869993850106,2706.9849780564186,8542.870208850447,1414.637396347976,-13650.55594719306,19556.026914602593,3276.825948860345,2698.529112252951,8556.446854830336
832.0,-3636.0,17492.0,2436.0,2189.0,-1019.0,1057.9347133950448,-3831.3258819007588,17394.02356030976,2447.157429732963,2206.3092893142934,-1011.5144134261201,794.0578898334804,-3744.7922779076303,17673.18228895888,2419.7658400917703,2188.5910889644215,-1015.8548697712123,928.201272628345,-3741.3031089624797,17535.301112915597,2437.1419126805213,2188.7336397617564,-1006.8219232335376,788.8676160553262,-3597.6871304418623,17537.532508608372,2421.1168556417765,2180.358017117886,-1020.4764637036453,938.0292389467951,-3577.0391766995563,17444.267578157815,2425.255187904884,2198.2068426576566,-1018.3053126842252,926.3713404846577,-3481.1107287191767,17735.7104184697,2447.420647647877,2194.968256548943,-1037.3378556000855,922.3683111261406,-3796.2844303153724,17509.299349735225,2446.7684563928105,2178.6372063992403,-1017.908168395286,930.6931012658638,-3549.6758922158115,17599.88716850719,2423.9824675826712,2189.1720548804046,-1016.1463674465177,854.8962750577222,-3548.5491923680706,17419.23349294997,2426.438726041111,2190.243386226304,-1011.809694462971,707.7823782039085,-3606.4004725428467,17399.15101709045,2429.869182906258,2189.955613330609,-1006.8057372566476,1086.104016141328,-3558.0064504342986,17458.632014246265,2447.5997433789207,2193.4478481303026,-1007.9104389047636
1780.0,-32.0,17428.0,455.0,730.0,-5445.0,1746.651101785696,-29.63488153955865,17441.815728601116,471.47950009744005,737.0018401831619,-5455.842651297552,1723.7075927891897,-67.77117080010234,17511.591495754772,457.231023456364,725.2005488321885,-5456.272587837097,1916.0695565089688,39.012020193839774,17588.626429680513,461.9945764375529,723.33294567232,-5443.286935689385,1947.520328343886,-73.19343925733762,17442.65605558179,464.32709880002426,710.490147337023,-5439.676660736114,1827.3216814396412,51.855964470162675,17452.318029773,443.61939377116477,733.7257721946853,-5435.4057612057695,1875.9164463028867,-192.89313045192347,17457.06460678786,448.67105955594775,731.4015460725071,-5455.435181776295,1731.5549102747443,-10.161983016107015,17607.68911361641,454.6469302635419,717.077782184749,-5430.272672069226,1553.5413163188343,-129.71768897260273,17318.15779440334,461.6669151696056,733.2156659408317,-5452.015682287499,1787.8457144822266,-105.7113956028768,17648.620301193656,449.0706709928395,730.8321368520361,-5441.448722719928,1731.9065256607882,-30.33251327460085,17432.015586471654,449.22926041269767,719.9122134267751,-5451.343052159131,1730.808450144193,-81.59320347841843,17372.177787990302,461.19504360361435,726.5851151958249,-5452.951350762549
2764.0,13136.0,14896.0,926.0,699.0,-1052.0,2859.894818953737,13035.270088361982,15187.849426008492,908.5977545507809,714.8716635201677,-1054.4295146947734,2711.9890417160864,13050.586543497428,14873.0318114617,932.6841047022092,703.7976945811606,-1055.1242666993662,2762.6253566662663,13017.756963235557,14852.973195052205,924.3825654423445,702.0538952397613,-1075.6524360201227,2596.1154982837706,13189.725950557582,14855.696195366494,922.3664178920314,697.1963803850311,-1035.2347067359453,2772.423164053181,13093.394640890909,14862.564129082362,953.0579483152776,690.8804808507894,-1052.7200296838516,2765.979660744427,13158.795840485343,14861.242475836743,929.8754480751755,695.81818360999,-1059.8197404417888,2721.9030760031787,13231.933171644865,14877.860665827011,927.4108483747916,695.4045112541285,-1052.8495787559966,2849.6306967578603,13158.198019198258,14835.259216668306,926.48436321678,698.8806195656849,-1050.5456315721156,3007.550195810503,12915.076936700782,14807.609902771042,928.2891310371167,697.0395586152387,-1048.5416458195289,2676.7181367709954,13096.007974366432,14924.302911344472,927.8864945353588,673.120630970751,-1049.7705663641102,2745.5953643978714,13191.777345325729,14803.219925713065,932.6536957613033,674.0789167457617,-1050.210190002369
2156.0,15872.0,12748.0,1438.0,642.0,7329.0,2041.0485112715078,15683.970189077983,12662.34834024524,1439.887576163943,632.6916465586494,7332.371571103828,2178.3505443771805,15867.758809729316,12638.78854275617,1444.9955991222926,633.8371277524367,7332.569760215567,2112.7057330135453,15981.679742144142,12605.954784042971,1441.037017062696,654.0589623776633,7334.336006987384,2061.061648787936,15964.319683631502,12764.682625535585,1442.3953485278605,639.2099225203444,7331.007618522704,2068.9291508648594,15839.308281102274,12709.180109690586,1443.1067626752301,637.2333009982952,7324.039568247287,2088.163779702385,15886.675103740432,12813.939827625516,1453.6475061639635,619.1445037913716,7340.353458199761,2109.4440422955354,15933.216357186673,12756.127875547196,1447.566829658174,633.0793859613718,7321.691185949949,2163.5696714276405,15778.560026871137,12657.742842244883,1435.3485754078683,648.0678001603002,7312.296982757851,2172.8906182410033,15890.407498296589,12845.111716259615,1428.6039391538663,650.5047572508332,7340.860742919302,2229.411489966009,15839.767360203668,12803.865732783446,1438.2810802792583,626.8760359851833,7314.142960167265,2273.8124260789677,15976.651454105544,12693.991702931504,1440.6506598674512,641.4746268079782,7322.547552368345
2136.0,7736.0,7604.0,3806.0,3556.0,15549.0,1954.2356685336742,7845.895730055675,7416.497494693557,3806.3184149290696,3561.9743625759725,15545.90352018058,2076.9217392036758,7853.678134661624,7708.165972583238,3809.0685037396097,3571.9712440411836,15543.461416198823,2131.1426729133573,7799.730996921946,7446.798389864482,3793.1485573380455,3540.3493743314407,15566.20099817431,2091.0899141778877,7793.29411774534,7474.8078381072,3807.5089815835536,3548.3449185980458,15546.40438602554,2129.8849395135644,7563.944374933556,7788.343196396935,3802.4115936771977,3557.1329875288784,15550.681351341278,2124.5878323050965,7657.982622154881,7740.2407394435895,3787.6543564174285,3560.4955138535042,15568.538153337942,2108.3444152825505,7718.522312319505,7545.289263272446,3801.2819145344615,3556.801318022166,15563.842881700035,2163.265918897822,7842.35068605087,7503.188922593671,3800.3187520887554,3549.996550274585,15544.042286753836,2198.8259676187577,7815.2810787484095,7559.231300677438,3808.5269375924977,3562.0475184127954,15567.825272358581,2023.4422538789697,7770.409329380165,7527.025657160586,3802.9785125525855,3555.114976441054,15548.713334363249,2135.746745113055,7882.694883777753,7362.917937754812,3798.25171659096,3561.59761131579,15554.589534252744
1816.0,-14064.0,19720.0,2501.0,1294.0,12635.0,1725.0946845703438,-13942.35622424958,19752.063389934112,2508.166213506574,1278.6752962118967,12640.598334334227,1979.774657569018,-13979.159670934207,19780.050315259978,2515.742212911635,1282.427348346431,12633.526940798754,1933.1688395905435,-14104.905247713024,19846.98967287683,2497.205664320713,1286.8866672075767,12617.560964649638,2021.345979821305,-14006.004272465858,19646.63871679748,2492.1426267401084,1294.511050228241,12639.665517333537,1709.1256588748815,-14071.14314984702,19733.457292887306,2519.9897899641624,1313.1414700788152,12616.027797604618,1846.43970861195,-14118.677355866661,19542.082684587538,2495.2516571755204,1304.0002880632298,12632.606987916824,1698.3385326298337,-14000.909320101478,19843.847744095146,2510.1808375913843,1299.7292597979285,12636.17220235165,1750.821078098518,-14137.651486392697,19644.425253465175,2520.4607807061275,1294.3876730105721,12640.228651193098,1822.7585952045065,-14092.729084741544,19685.907042692055,2475.5198042635925,1298.6612883474766,12627.34629712563,1801.269138684929,-14104.92205548996,19601.64865228144,2493.8807183527833,1307.972060152356,12622.752394766061,1840.8670462787554,-14055.873336022212,19706.735973828527,2493.570310882726,1299.892345024728,12628.450445368286
2196.0,-15220.0,19076.0,2637.0,1781.0,3024.0,2183.652961480793,-15234.903668824953,18958.92088689745,2636.101414176009,1770.443705922461,3006.654085886815,2348.3696000979216,-15163.572283120217,18878.16008671942,2648.3974713408015,1761.0619271119183,3030.613227466291,2181.6142995925998,-15236.811767565106,18888.514324357562,2634.6748626102744,1772.274017846249,3031.796194183562,2157.1061259899952,-14959.134865821487,19139.6537073821,2633.847524106238,1777.51667465163,3017.431738092323,2065.97888727656,-15154.829242506312,19109.048731931503,2621.795693894244,1786.5675826318266,3017.072143138415,2139.1036405056943,-15219.10533422378,19330.916765095673,2637.231906118085,1792.2383474472902,3024.5489054888667,2181.50033953366,-15095.956042950198,19103.863106697514,2651.9948125779924,1777.4941485463578,3015.6970100397316,2426.8930112768835,-15370.45923459998,19151.140603997912,2614.69215660814,1774.2016330117667,3028.678226579882,2122.898624235485,-15132.499249410492,18965.87250155048,2642.4071295970616,1775.5871916202757,3015.248863150736,2186.308157813877,-15168.929336070089,19152.776498015726,2644.165235953108,1772.3015711306066,3016.3856223023363,2177.6377743067414,-15107.123522528269,19047.016249562792,2612.6004462575825,1779.1492865225184,3010.830493448008
968.0,-5116.0,19268.0,2398.0,2605.0,-4147.0,863.6589409847959,-5086.3750656057855,19198.48239850805,2379.513123944122,2595.1072379148927,-4142.393491971743,1066.0692081480956,-5304.222898405025,19285.82136226425,2398.1431316052517,2608.2938840897023,-4158.452363597665,975.0731734530286,-5048.869900432369,19300.657808125703,2407.9738878688513,2602.341009550305,-4152.113989711637,1056.811289618518,-5204.1831772168025,19372.14232682082,2406.0866539644785,2603.315625386307,-4135.634804952382,922.1934925792027,-5025.663053115022,19199.136306360106,2391.258740893432,2621.824961474964,-4129.264084440303,1279.1444177318683,-5236.686552751121,19020.48748923577,2396.780140472641,2601.454114487122,-4161.459227660582,890.1378181861778,-5106.70684788291,19186.785528526256,2390.513427869263,2598.050669806869,-4143.772713779754,1101.6035753054812,-5131.636557044745,19201.86089757068,2405.0213866215236,2607.9799664802076,-4151.773110549148,1151.8421003696494,-5300.366475761146,19156.31993289029,2401.880771665855,2600.435631629571,-4135.352714762148,1027.8464622932865,-5020.836488649439,19262.226619879893,2411.8067123975743,2597.4924693100124,-4143.219764852263,980.0195820074721,-5134.336161686268,19215.01425623278,2407.6095582880353,2626.4069972586817,-4133.778691125314
2164.0,-1080.0,17984.0,-292.0,419.0,-11764.0,2096.487750325485,-1123.9543824201228,18037.826137449403,-312.93807534461627,402.6203026929546,-11782.269889008194,2040.9730304359455,-1054.0378675438426,17841.64538826401,-281.96058288974973,410.7694668093423,-11768.500469507671,2374.0467217114247,-1128.1764706090585,18115.229286547004,-298.96246221331324,428.3534278174957,-11764.83349818994,1936.9181399550107,-1025.1578569524415,17825.805249362606,-289.70808805756695,413.150302680813,-11749.60267079247,2056.228472323908,-1081.480828719468,17885.918329024706,-292.49113844948215,402.3800191951091,-11772.519601104632,2122.961360291585,-1110.7627715306828,17991.04251776847,-291.1708809566082,430.2994721195401,-11771.049927405451,2157.3068983124695,-984.1806855377127,18069.67522189773,-293.7328140324745,421.5775901598213,-11764.911419192638,2207.9585104126827,-1061.5510651154614,18039.01195805531,-298.6404613068653,420.44240810194344,-11750.62301119398,1953.0890044537828,-1085.619674149733,18176.253396146265,-321.5017345800322,415.89158183331335,-11749.674531177643,2285.1271530646736,-1096.5781773833157,17792.698644012926,-289.55713539759677,425.3839509311565,-11757.497479915643,2072.0930424697713,-1135.0971613715383,18075.40318307156,-278.49472611549083,412.94062003482725,-11755.495675147436
444.0,23404.0,16492.0,-547.0,932.0,-9367.0,567.2027834175448,23435.720079714047,16648.34363962132,-555.5912591570303,928.1721321018427,-9367.896411320155,334.10512929158244,23315.678237292454,16437.459465058757,-548.3938052286117,940.5779296427074,-9350.586665544835,544.9410685427023,23232.43738749008,16391.455384817393,-537.209084254029,932.0990513599261,-9374.887919493056,375.4571151415741,23293.415099180213,16415.220383299096,-555.5408568991633,916.6279794107164,-9373.173591920427,405.58396578829104,23412.540835255495,16386.62883055398,-531.8419618465998,915.6459734504716,-9367.994486203806,829.3748645991708,23510.048687322407,16490.667803164353,-557.3188372939372,922.3089288422361,-9346.36259577523,366.7643142722138,23427.080594456602,16740.021874501937,-544.4805834763549,917.3063113725067,-9377.621220751058,319.9218652129256,23525.193905097156,16538.427799226833,-563.7959966497295,952.1842557893107,-9384.206144448808,325.80593620062314,23409.638075766,16556.91804037762,-560.9309952492528,932.0939519271892,-9377.315515236101,367.6434565551077,23363.827266226726,16695.09092451898,-531.5312294303463,912.6827626839199,-9357.593166167544,398.0842465651833,23356.471500610354,16434.23696861011,-546.1999418131721,938.7957166822588,-9361.51973298985
1800.0,8976.0,10316.0,2483.0,1734.0,3107.0,1767.9169589166338,8925.168049505834,10315.94917526582,2465.3507483147337,1743.3363360774356,3113.091997818483,1907.9797557025481,9021.290291809644,10274.502384940344,2491.652705489731,1738.2763999396736,3083.895172204563,1774.594324116434,8987.93956069571,10129.431494791546,2494.7956132980007,1727.3240451978384,3101.2302042394895,1803.7526158771836,9149.162114269762,10397.920887737251,2479.723420742814,1728.6698913738312,3092.6247451344693,1799.8058441635328,8870.792339729398,10187.854602125997,2480.530772786229,1728.2863414447602,3118.0946966491597,1696.435865400395,9083.613866465965,10383.327691924507,2481.924720124928,1729.7443009160359,3103.820579478483,1702.2783338297986,8835.085302275853,10372.752147105428,2476.003522488124,1736.7884348876048,3111.912029692695,1668.2087174261792,8908.284424655192,10436.834969243688,2467.5186086293447,1725.28400818737,3101.98400525243,1732.7964928494152,9039.974541852256,10253.104692379711,2494.9828124340524,1739.090271768891,3121.731325871178,1759.1459137257511,8893.229011680236,10282.257371994023,2490.1600658694892,1741.6470214198819,3121.1538804712764,1777.6064733150313,8836.811118515998,10459.291131030252,2473.735034048938,1739.6027504414546,3106.986367243191
2492.0,-2036.0,11588.0,2963.0,2007.0,9936.0,2532.850323283144,-1956.709717045841,11640.422409853976,2989.237374989439,1999.9149213134642,9942.928294922689,2608.319419238064,-2066.0301809577973,11579.100174613457,2955.913951166211,2029.9985363113935,9929.958868077221,2295.780575604323,-2027.620836404345,11640.888486633727,2965.90019725542,2002.515501690586,9953.99910725345,2626.7140477727216,-2057.693451122723,11601.492633906802,2961.9488715567186,2006.99809366658,9929.02469173143,2423.327553019689,-1966.254345927353,11586.203605304438,2966.5331752703805,2005.310832652563,9930.636625493918,2423.6293601689313,-1963.7558135711345,11545.939461892342,2975.321151790636,2018.9137463325962,9952.072856502484,2486.2652026700703,-1981.930865628706,11512.278296075558,2977.6956431011504,2005.6395773501472,9941.995088752457,2573.958650545869,-2119.0840462657698,11552.668283480489,2963.478406521375,1992.2000440016843,9937.352930898314,2627.7671010390054,-2048.198991484938,11801.268462109505,2970.822997230522,2005.376956376159,9941.589112783699,2560.961903284418,-2017.107370940045,11832.837244107901,2968.57200613523,2024.2286081794366,9942.21399919751,2453.190880785429,-2087.509353963498,11546.638869852179,2974.3380000565803,2005.998560643048,9943.789487235543
