IMU1_AccX,IMU1_AccY,IMU1_AccZ,IMU1_GyroX,IMU1_GyroY,IMU1_GyroZ,IMU2_AccX,IMU2_AccY,IMU2_AccZ,IMU2_GyroX,IMU2_GyroY,IMU2_GyroZ,IMU3_AccX,IMU3_AccY,IMU3_AccZ,IMU3_GyroX,IMU3_GyroY,IMU3_GyroZ,IMU4_AccX,IMU4_AccY,IMU4_AccZ,IMU4_GyroX,IMU4_GyroY,IMU4_GyroZ,IMU5_AccX,IMU5_AccY,IMU5_AccZ,IMU5_GyroX,IMU5_GyroY,IMU5_GyroZ,IMU6_AccX,IMU6_AccY,IMU6_AccZ,IMU6_GyroX,IMU6_GyroY,IMU6_GyroZ,IMU7_AccX,IMU7_AccY,IMU7_AccZ,IMU7_GyroX,IMU7_GyroY,IMU7_GyroZ,IMU8_AccX,IMU8_AccY,IMU8_AccZ,IMU8_GyroX,IMU8_GyroY,IMU8_GyroZ,IMU9_AccX,IMU9_AccY,IMU9_AccZ,IMU9_GyroX,IMU9_GyroY,IMU9_GyroZ,IMU10_AccX,IMU10_AccY,IMU10_AccZ,IMU10_GyroX,IMU10_GyroY,IMU10_GyroZ,IMU11_AccX,IMU11_AccY,IMU11_AccZ,IMU11_GyroX,IMU11_GyroY,IMU11_GyroZ,IMU12_AccX,IMU12_AccY,IMU12_AccZ,IMU12_GyroX,IMU12_GyroY,IMU12_GyroZ
2052.0,3384.0,16380.0,1767.0,1348.0,266.0,2024.1201967029979,3411.0014039781904,16418.2189688831,1776.100834529487,1351.5334821585868,270.0567668276331,2083.151153585671,3422.6726108328608,16350.585517509979,1773.5156131886222,1353.252960516929,271.0840291032,2010.121562029679,3223.0192349928825,16580.454937840244,1768.6045809113882,1337.8263907678097,255.81311902940428,2084.348122787739,3364.2329867043745,16400.087278558687,1760.4425186682925,1364.0638979156938,270.38074453046937,1982.0078791873432,3419.8254863306884,16406.811788975643,1781.7495142762295,1358.6410188257814,259.11555743560933,2038.1700683572687,3352.4828245804915,16435.740940125826,1768.1425226204203,1345.017916074161,269.56254740819884,2043.7379285893442,3394.7332064789484,16439.71340495686,1763.8841910911929,1333.557710212738,260.8470061357802,2048.0501099612025,3365.5791637185594,16367.50325982361,1760.7594267089567,1366.7005914318422,269.451021201229,2113.192955036826,3413.2960192498786,16268.706165424568,1763.5111950997107,1363.8990004840762,268.0572078051161,2099.3251233355627,3406.910882294376,16493.40778249618,1757.1024444769691,1342.8856242023332,255.7340094452232,2110.406249621893,3365.8312031918645,16578.166652908472,1760.840833605112,1357.596054977794,258.1179813298228
2072.0,3444.0,16392.0,1784.0,1351.0,273.0,2015.180667553456,3540.991271856979,16426.470056809278,1785.1113228936126,1352.9848999981366,273.6681298893154,2265.54636829693,3610.1349542087164,16406.693212148806,1793.584468951766,1326.1210458401345,268.228701644407,2060.6037308642076,3606.5323819189207,16490.555119874152,1766.8109421203133,1347.7558604430048,286.48354575988236,2150.4440179384605,3460.659875364588,16257.810997824488,1779.1953336441934,1367.8077514591087,268.74670879251215,2119.2749001461466,3309.538902773311,16346.426166155816,1768.6427114650762,1356.0472517554952,268.72895373555434,2106.019311656132,3084.1267399496464,16217.388814314567,1780.5716972071984,1348.927990231327,259.49729108525577,1956.192437232027,3304.5715682980076,16435.429162302593,1788.4773318832763,1357.062455871627,284.76905680654795,1954.1448119370218,3551.4482953203624,16284.470701570448,1787.0777104380918,1362.2523524052292,267.74893229514413,2182.3020884284165,3505.3173695054634,16421.432111475522,1785.2187033002383,1351.8355563662724,266.18596997371435,2117.9524153131542,3433.44924617211,16288.109282375122,1782.2436005096456,1342.1127840339204,267.39276951850803,1877.6360476610566,3402.7025100290975,16516.460030342554,1769.0300925973584,1342.680177695449,281.9292558408149
2140.0,3424.0,16412.0,1732.0,1343.0,281.0,2151.7173822413815,3511.259774945001,16474.07959232056,1722.279108506652,1345.2744843515682,272.7639895778909,2302.440318020135,3488.1278588130895,16181.65396586027,1726.7699300045153,1336.2440885517663,281.15967259300254,2169.1584139975325,3393.218371790266,16488.81033495388,1739.4512481668446,1348.1801424924176,305.5596048029978,2084.2557865352287,3479.4036226310473,16490.182508118396,1751.267737736381,1358.470425914097,285.7857895451623,2177.025710214149,3524.629382270553,16463.137233205645,1729.0982898879029,1335.4756552259878,271.1423675982296,2205.68721997232,3472.3969431798578,16469.100202528407,1736.5625403592387,1343.3062977520208,282.3835648216395,2000.6588582207153,3541.401050701602,16393.041912660177,1734.3303143584358,1358.4022644306312,271.9895385984742,2056.044707833625,3432.113055949426,16390.742611533566,1721.3946750293703,1332.5260043549465,282.4198401678981,1863.887803153567,3361.635382285961,16380.209096358762,1725.9962096007098,1319.414612849623,283.0148943762811,2319.166926845637,3491.54803393734,16358.75526428058,1735.0951141924565,1340.1408093258112,286.3650252476919,2076.0678161378523,3360.9504402975226,16317.659332892492,1731.9354526782781,1350.0777911485816,281.68315518486537
2080.0,3384.0,16440.0,1745.0,1375.0,293.0,2029.8296600980314,3415.5123553209664,16581.354314485878,1756.7825856225697,1369.573979048907,294.5341003822512,2180.2154436514834,3368.9180609172586,16432.5007456704,1731.308923208312,1376.6828496000574,301.0756986580169,1843.472082418647,3497.6292200723938,16369.09282871705,1744.6503382430876,1384.0971631460625,314.74367076185865,1976.0102903248142,3482.787765271157,16621.129475284448,1757.5043473561343,1376.323739943653,322.81969416868304,2139.1925599204556,3308.965083348145,16653.45912081686,1740.9916212107973,1384.349652062014,301.7957457185975,2081.4782377293136,3334.5368556356684,16499.71564634243,1727.026999152653,1363.087224909643,299.895905674642,2016.778766435285,3349.5641098653423,16465.19176766224,1774.9033030994492,1374.5363513375253,291.81387315515417,2127.2538000603136,3504.40989580174,16475.26087915129,1749.299155057572,1378.411615573896,301.1146156761647,2202.051327626256,3396.70130251319,16440.912523569415,1744.6305894352417,1363.3500330168079,298.48448072707555,2057.467892487063,3473.0419983728407,16348.171859037433,1748.4550561586993,1382.21053811361,288.63840330894755,2030.1924505412549,3322.7471312284215,16606.41231506365,1753.9604452753597,1375.7308405785868,296.1386581117081
2120.0,3404.0,16440.0,1776.0,1346.0,270.0,2193.712151045725,3329.2857377264404,16346.966084693539,1783.5720434344648,1363.0510988577225,252.4964535897552,2113.2147559938826,3459.795095948784,16280.564125883575,1773.089683901745,1365.5732022131506,268.1068656881584,2003.2618720713983,3344.325590934473,16429.14205409206,1780.4015906911904,1358.034141860716,290.61951313473605,2258.421224965019,3242.492438917081,16365.108077396559,1768.222242770443,1356.0985581405482,275.39361445169686,2063.1887601139983,3399.880444743642,16373.687110697116,1769.1962728222506,1328.4592721984554,275.46598033668954,2057.218467287376,3343.1306432685456,16424.083173310304,1775.7044398854498,1338.5810019626088,268.64458524085745,2089.817954911362,3343.8892763040362,16525.429633583346,1782.1722246428455,1343.474644329434,262.8831469296456,2120.5527440288233,3479.652675473204,16552.344814466192,1786.309811644274,1346.3071826573496,266.1107613960938,1998.5905147064968,3384.2044392106263,16376.522599902122,1774.7301854777784,1334.2904332789929,267.82632346600985,2195.4000145625064,3385.207920048747,16583.489779601692,1782.0533302955764,1345.472292448852,281.145188273311,2213.780365944681,3461.4265778648955,16574.38303155798,1776.5081190430374,1354.5410323068852,264.5859278593917
2076.0,3420.0,16344.0,1745.0,1351.0,302.0,2095.8573373292807,3475.6839728812315,16519.842687485965,1752.2137623769213,1347.4816699996682,298.286284131574,2093.317580973618,3458.495538290531,16293.154722230589,1736.816860474111,1344.0694953918455,294.85114062173017,2009.6152011189965,3309.0180745500597,16446.178108980304,1731.5945084233247,1352.4765285085791,319.16012397366194,2114.9304783473985,3466.5802312301253,16172.605455878569,1763.0834514531844,1346.6090481055182,271.43667495927264,2060.7641895086354,3523.1950833272754,16283.855625539849,1732.5254475577644,1360.6453519846996,314.6513460572546,2087.961882038968,3609.91493121681,16396.342297159008,1727.7125846524125,1349.1826141146144,312.7622600803209,2165.3496971086897,3261.292338851006,16200.043419664584,1750.3913843458813,1344.6044926356624,290.14154024087753,2192.204129604938,3320.0595514552315,16340.813387024436,1745.7917944199235,1338.9957076593728,306.7141492800435,2324.0183014119943,3464.220203056742,16239.625318374736,1740.415074418402,1350.6593642416676,290.26226630419603,2089.7585696043066,3469.0216468827366,16349.691864483068,1739.1138160642167,1352.7098288685524,308.5538103209957,2108.893319407655,3548.76291524773,16364.23128595547,1727.8690802450146,1344.9419941391611,306.4980336863541
2072.0,3456.0,16352.0,1737.0,1337.0,245.0,1943.903050137541,3603.0012466300755,16328.47794251297,1716.9904952136944,1351.7651657156384,247.75019197238478,2411.555828673434,3476.1714045274516,16331.526325593288,1753.5163126169912,1335.3381474805703,241.69189632950935,2121.236248365224,3370.1457302901226,16292.969508256287,1751.357785338391,1330.6393279502943,244.30779620222197,1970.2862812770256,3470.003503241122,16047.537058633936,1755.5501334931205,1355.6769106655343,257.85828729130645,2190.541338308415,3271.951692349151,16354.698320358868,1718.8538244238698,1340.9174376964554,236.7959355623533,2066.4744441297707,3571.9469111625854,16442.375924538766,1750.654217218628,1327.6558674749033,236.23773955090167,2001.466284194925,3366.87883415654,16358.583258981467,1724.3903747689033,1342.9165324291146,248.58971983770252,1987.8414733254183,3502.4216788847707,16308.802558694608,1713.8709388061857,1318.0147823900782,233.95416247279394,1920.9784121167286,3429.1917388368065,16418.44876175794,1730.3894809754718,1345.8783540206919,241.3892397341227,1921.2047553969223,3462.8081941400037,16531.978556645616,1731.5688616895848,1346.4404132307939,240.34140508290741,2208.172146148077,3681.1768847644366,16370.582504936603,1726.849498973016,1328.2992759838253,250.87266686521224
2096.0,3460.0,16440.0,1773.0,1366.0,290.0,2046.13704454971,3599.2780830692404,16503.052176829195,1779.1910811810712,1376.362582207472,308.0185098729929,2229.056286130041,3554.8937979504203,16510.258978475053,1766.693978852195,1358.936461717124,288.79652211786043,2083.924670047728,3426.790347945308,16299.848904165088,1766.9437791390976,1371.510874144736,290.94626174552855,2246.044773958229,3634.967743289889,16295.53985342052,1774.9665959096121,1370.790530386911,281.1894950397516,1919.8216616680272,3421.848743596181,16412.066425008114,1780.052574768117,1354.600469487468,303.91229233410894,2052.80495073943,3477.989174013698,16458.22084786671,1765.9377238815787,1360.5475431514103,286.1764855328335,1953.210414700167,3409.3332250261165,16410.283743709508,1759.4963255449125,1367.2415907013644,295.3461150639252,1877.6303285097297,3253.035812675195,16606.38453523584,1776.4791593079465,1373.9426902813195,303.7457365696971,2123.3526858492332,3654.9135805290043,16396.009161825797,1776.009431347088,1372.0352247882108,290.76931851549716,2231.0151100648563,3322.8024702800867,16511.99244648286,1780.7243702327203,1354.3290536613483,299.6589165350802,2026.512186533647,3542.4664893897493,16428.85764992976,1785.6744531559941,1372.6949249436454,286.0370184091415
2004.0,3400.0,16404.0,1784.0,1388.0,284.0,1998.0987577435405,3304.9652409869477,16502.96082348525,1794.73267630267,1394.2947858344482,267.32425181247515,1968.1647649335089,3429.4131478468025,16445.360713674938,1773.8448436034116,1391.383607921702,279.97998374589486,1952.2514152314284,3340.85994163699,16303.479530686584,1787.1020957777932,1382.5702588512697,299.2632768024309,2042.1264970319808,3235.907203219699,16551.88644357554,1763.5611524828505,1396.0150314553575,282.6492569774298,1923.295957544272,3350.2573565370967,16369.144891721184,1782.9049765997818,1391.8181756786994,289.91015772060774,1981.7525728747014,3113.87444372956,16449.405497460597,1776.3237945014994,1396.4638007153646,281.1636170859586,1824.0129237990327,3437.8560781347023,16456.49035219076,1801.900117398855,1384.2739386953406,290.47086800046077,2017.9228785258758,3390.736169057265,16556.773560094705,1782.1308340040182,1361.2501900941909,275.8822803083277,2022.1708510288727,3546.0660522435996,16395.656714250184,1786.0595831995986,1378.623148961043,288.3910831829461,1928.749293870688,3334.451398558546,16168.458820723623,1777.7812946527856,1388.1227756024678,263.32009827624,1843.0143171341567,3323.5980586123114,16366.378871474923,1786.955321671037,1401.3132712161403,285.10725067652174
2116.0,3412.0,16352.0,1750.0,1351.0,285.0,2195.6291329881374,3589.1216546483333,16357.272859130333,1764.368227753748,1340.4535254031648,293.3539653359326,2066.225068274551,3650.5659217273046,16321.427246493484,1746.4788450411495,1349.0401233647092,279.7311035619772,1929.1626588189217,3382.2042553788415,16216.367827715423,1746.6265606087077,1353.7016635103537,296.63935236497394,2176.990472644564,3469.5261515811276,16269.340193053256,1755.3776433520084,1347.4010467944877,303.0188705552979,2082.628061147452,3178.367192822081,16352.880108129339,1751.4683635420927,1352.4875700305445,298.0576196282296,2191.404122097103,3303.3473710800563,16363.43052591372,1727.4869044169948,1359.4838257798763,290.7323080484315,2216.3580504095607,3428.1760182453086,16284.56100591758,1755.7864024010814,1342.4902979081808,281.37449731666896,2066.180607442715,3289.015669269183,16275.234796205234,1757.8292779778615,1371.7311283277097,296.01510630720543,2188.2475971240283,3711.424315710513,16408.933118025303,1755.0321129347124,1354.052700640151,278.5323103737639,2029.246536507845,3264.524536171455,16490.713786354052,1743.9600195334344,1344.4698383155282,281.166547531921,2027.9561301840329,3447.479455940159,16406.697073746585,1753.1850404660647,1348.7662478520272,286.67346326254807
2072.0,3424.0,16304.0,1739.0,1339.0,268.0,2066.516793486832,3529.0830921758543,16255.131627341416,1744.1628195989522,1339.0922011428327,278.48121308527567,1943.2286983080212,3494.058589764487,16375.262147646383,1730.5318580701064,1341.5814376021362,261.2364058450608,2081.359129990893,3372.2799930143515,16394.70862534791,1755.2844758623041,1342.846167717553,275.33502293600884,2012.2521673788954,3449.88198061303,16351.154260244584,1731.114581454063,1341.2935848730644,260.02757079834277,1897.075781244379,3405.3634738678174,16342.821209793081,1748.616435303315,1344.6961928421167,263.81586014807965,2238.1390288236835,3416.122461610424,16395.939929175922,1720.9104430728023,1329.4128328448817,278.9059150500407,2111.905475246412,3348.8124964377876,16155.219941994488,1745.0379386924603,1353.257456941279,247.32585859662092,2180.5190651241332,3385.1066169601436,16365.124141429858,1736.4635003227193,1337.2982507280246,284.01151387267214,2077.874559463249,3449.185111341184,16243.114038527605,1738.0345051854438,1330.4343282418008,272.4383486509347,1995.5716875142477,3296.847077701714,16280.96168584251,1728.6685060407926,1329.9598528845759,267.8706311532699,2162.8999551921997,3244.5737373269876,16279.854325375625,1717.922381078312,1331.588113528291,282.2595632690016
2088.0,3380.0,16360.0,1747.0,1347.0,281.0,2044.8873645643564,3335.628896004063,16242.006903410758,1740.4768213240905,1332.818062255616,286.1325234070888,2168.645041152244,3191.213105536349,16424.274072151133,1749.782642140642,1352.3866614746275,295.42808289215674,2141.1600273381314,3509.3341583481883,16351.570124051888,1737.6477757584403,1347.8952478664853,259.33305700577745,2016.9306105298651,3351.928102308675,16346.392619584407,1753.8114080732253,1348.0331292013318,272.56656892849713,2270.9381353031795,3409.4622808052,16222.549673488436,1747.289834752681,1350.7844670720456,284.4630015635039,2154.6245778698567,3388.632256566686,16387.001618768227,1749.2922472126536,1331.327867743993,276.40934105832736,2147.2136947781423,3394.296933109187,16230.121896330002,1763.681451916222,1345.6278794019106,290.08795735573506,2144.39981244401,3332.972019892284,16312.753770267207,1752.3747648225683,1324.9609753576115,273.1084231208763,2199.666383352722,3333.4291416234682,16215.160074048094,1750.9794837244988,1335.3283756994413,293.59898621021455,2059.2596921142163,3352.8597304477034,16244.51306610227,1755.4379548873574,1342.9674067791818,273.129896067347,2153.59407827166,3533.7957365681814,16507.654285592962,1758.3989433925067,1359.0321865371163,294.27834883311164
2120.0,3396.0,16260.0,1757.0,1350.0,281.0,1889.1260581505317,3620.360282204389,16406.671694944493,1766.1154216423272,1346.7075623481956,291.89237763008214,2094.738154424797,3528.550079997491,16230.44677058072,1742.17915507144,1351.3993879618738,271.6098103875097,2028.3739670582358,3353.297539084932,16130.549786531255,1766.139443026556,1350.0953998756406,291.010960184979,2261.2649707174487,3440.7812812569678,16199.089085554539,1764.220564905628,1341.3012668889694,293.93547777465426,2211.1471297216035,3489.7209090281217,16113.925435051167,1773.6796121027232,1354.0521553217106,293.80229895591106,2136.114395927104,3352.409242586275,16127.968793873226,1773.571644592348,1347.8130172352285,279.17630527418436,2101.4649696468714,3409.419056400557,16185.255907281971,1737.8246214302014,1340.7066788024383,270.14095793484046,1995.0705372798514,3379.412548704615,16415.99310350034,1750.8495069955638,1340.8386804789036,288.9129633932091,1956.1355132753147,3301.2032324297065,16200.316345053983,1762.9159161906884,1356.7490754812482,288.5074613491365,2065.363482608914,3271.3728526950135,16295.722064164822,1760.252947269866,1336.337326482319,281.71129976973435,2063.1295847963916,3326.83454534763,16333.348473148093,1760.2278624236246,1348.2319857547147,278.9253048418147
2080.0,3308.0,16364.0,1688.0,1350.0,299.0,2098.8918567203145,3370.4713786643483,16377.994693925924,1676.1388521635008,1346.4135100350716,305.9735307038507,2222.120056527903,3362.749044263322,16424.20099314335,1696.7601580523124,1335.8928125483424,300.60684878390487,1888.0412976193625,3411.829352616148,16302.082394085304,1692.4019053928703,1350.0491036721253,289.6553359736821,2208.4229704101626,3199.716218492799,16445.621881328305,1677.5310491793714,1350.9317387337896,301.8382762165553,2128.2001027882643,3407.1999670482332,16329.869936830019,1684.9051827816634,1347.557114725164,291.65734458825676,2077.8379821535314,3479.313576116539,16224.828445926742,1678.1947733442341,1313.4701364159494,296.0406531210972,1995.3749097890616,3414.5901992081012,16298.224686525646,1672.9419345496453,1349.0900602912632,307.8215563878201,2117.5929506648754,3502.087323745199,16275.713125885806,1698.0467057599499,1330.0125822716664,291.0225911218279,2028.1268119376493,3423.2072027429763,16575.978030107086,1705.6548869041808,1347.7004411332186,310.0108287744823,2091.7946617623634,3476.4283617981177,16364.80627176179,1697.8746982459606,1349.1132193219664,304.6746151320253,1956.687063999907,3263.6198820036275,16348.62209091748,1700.2465716257125,1359.3957814024304,297.2093544947861
2080.0,3436.0,16444.0,1781.0,1373.0,252.0,2264.895985869065,3512.9385661573006,16406.79601271692,1792.4341244188945,1379.5975473256783,234.08233941227383,1952.6430793024133,3590.0542112381027,16466.07814730904,1775.4929620080786,1370.4346344066812,237.3053990501293,2132.3033236216925,3443.868257488818,16387.698698877153,1772.3008437670758,1371.937504750918,237.07213349211827,2256.903330492728,3373.2144014404257,16648.382808521357,1797.946576658547,1364.4349599719405,263.08288416608167,2064.4098004659736,3337.071780591638,16400.361415064406,1794.4452530138533,1359.1398865032043,250.7187416187744,2141.4962934236196,3565.6622487692525,16508.130779389852,1789.2634432051314,1380.3991520400332,247.97085069039974,1902.055114470278,3392.2101790921297,16602.062032579066,1780.3847301928122,1354.1501280579257,234.95359868375135,1998.8248140480364,3381.978431621045,16510.564845613208,1771.6411216519464,1371.1493327804196,253.88750848848835,2261.2899208336453,3544.5307017120303,16593.710659546505,1777.832138716435,1364.941205454406,252.98970711439307,2050.844517031432,3498.1175823846575,16487.992090966338,1783.4653481966816,1359.837520616138,255.88534364183909,2019.5482909337568,3325.4050156455182,16558.460467293142,1786.5375045409735,1367.84320928576,256.1001030825478
2092.0,3376.0,16332.0,1724.0,1326.0,295.0,2037.3119464758486,3477.329057890629,16209.973852335654,1722.0563935972114,1315.7177141801908,309.0814998479326,1918.1246066068957,3521.716652499399,16229.278181310052,1719.7575425258053,1309.8664746229715,304.0789466512681,2038.562986456106,3443.68371977864,16347.390533582125,1699.0688299692902,1320.7537192303384,302.0768281445243,2004.7790962278993,3163.7443665997957,16363.724148433274,1707.081431905045,1327.4874461993938,306.44637735458025,1879.2586504057904,3288.3159993138265,16268.00322908496,1722.7012253652845,1336.1705491999294,305.85174549122036,2150.428968932466,3252.218244478177,16359.649770731698,1739.9078194675176,1330.2576776829426,309.1563798117577,2372.4763263748887,3314.6137098533563,16267.304887065586,1717.2247525156945,1315.0779316245084,302.60794786015356,2185.0815038043893,3559.850160074112,16438.739864504012,1726.2494535955868,1325.114324246346,292.1217398020777,2199.7580934439843,3465.0241620439647,16151.12896009005,1709.314449824152,1322.6905055449386,275.6800872730797,2010.7801436961083,3328.5343135258167,16334.648820153827,1733.9172058558804,1323.9076536220145,301.3566437454125,2234.9143672443797,3282.716796267896,16217.156455309385,1718.264273769089,1330.253279088546,284.25075361022493
2120.0,3396.0,16324.0,1766.0,1385.0,275.0,2031.5683404837364,3334.3185666569516,16298.891399089362,1765.4658513951495,1370.3458040894984,279.82795614870696,2068.4803809919254,3301.785671393907,16432.81413001987,1761.10767851889,1365.3889018498485,271.4783657959606,2005.9013375168333,3336.665476922319,16207.602311294624,1770.148916494328,1396.6190399062914,275.5337615086982,2205.3194701600482,3265.176042599332,16140.646214040124,1778.7691190802234,1390.8971289558979,282.4200557724807,2126.409173307405,3298.4097931842566,16306.246805600522,1757.4831318741558,1390.9161713037254,296.3020553119457,2182.803423314972,3489.0979747285605,16410.897631199754,1758.772235923939,1389.91012197777,295.2127862304546,2107.2770944809654,3480.3865785159464,16306.47847494726,1759.701076313158,1370.7165610686843,279.5711496819208,1978.4961099966788,3312.0043278028606,16068.536957180819,1783.2195351234063,1384.146141238764,274.9030773284842,1926.691475121812,3417.141527531517,16387.391826613235,1753.9764926894454,1382.83660433542,265.2597202295529,2114.068785536022,3379.4603075112987,16359.853054482986,1756.1253900346896,1391.8793464699252,280.31919910885904,1900.7179636454625,3372.8291972785128,16380.736703804832,1782.2036849319288,1378.653556579888,267.5885745251096
2092.0,3416.0,16432.0,1773.0,1374.0,279.0,2138.3061547539332,3431.7805968763005,16380.041561041811,1766.8465223969924,1389.5581283888544,287.6583437130759,2047.8905812323776,3369.0804292065072,16382.641708720921,1780.249517445161,1382.176105876706,278.8302093391119,2093.9749098964508,3473.8420934860314,16234.247909250349,1774.451871183557,1391.2541665109031,284.55496181558544,2069.393893749922,3327.2681548355695,16466.792538059202,1752.2762311759582,1370.7576614839481,285.58637204409746,1945.085109557761,3391.0318328943126,16518.33865202374,1771.6182065402975,1354.2766182681094,283.0798932360045,2215.1852580072054,3542.8810549184636,16516.63343291122,1775.5510380813926,1365.1438153410302,291.5117004076375,2029.2000472647094,3436.895535353754,16371.700207145028,1770.1798219999116,1387.976147867883,281.00416315776926,2012.6915458998385,3491.5494829053855,16546.350989300452,1778.2558273804736,1379.1630556585985,274.8099011848685,2061.1817982301836,3454.481738368901,16354.148513572516,1766.8902065540274,1360.1960972313227,289.58039444333434,2204.6920328387023,3418.6428996910663,16169.766329862601,1783.3280267232553,1374.1813616380864,285.8264102657208,1998.1439877374994,3337.7998678624945,16566.321391418594,1781.7993501812018,1373.498513214291,267.6166580918693
2044.0,3428.0,16340.0,1756.0,1374.0,297.0,2124.6431196811736,3400.5876961917234,16364.548769693401,1758.9834235719125,1370.4001290820565,294.62964418857945,2028.9301970150232,3460.73142621632,16547.75780878643,1772.5958710722343,1367.1068527185068,308.6995775300894,1849.1315615747499,3367.4398070629545,16459.249429902193,1757.8326800519276,1368.3402406461612,290.7997066213529,1985.5206080657665,3417.9190623851,16401.10188102304,1766.1538152294577,1379.2291717543933,294.6895584047127,2110.874134939665,3430.680704588747,16257.160110907176,1741.4893694189477,1388.379503687777,294.35809088364607,1962.852868447106,3506.2158886570846,16338.76333974505,1765.1527537065872,1374.7964229314864,299.72040754506946,2083.726234380701,3493.606214801887,16409.14751061973,1766.4952837077417,1377.9528813573465,316.2173478418899,2233.975896590469,3206.810223483635,16255.483919190818,1773.2592353000641,1370.338682808973,308.38168392615887,2029.8976759718105,3300.8602226200996,16484.2561740073,1762.4748705461163,1376.0627583761545,305.59099911010503,2093.284143377467,3378.382175775747,16217.857526976743,1773.1073405035654,1378.7621919029846,320.62981244343433,2134.6566474213046,3260.1043002116844,16398.635338443328,1750.3208042879485,1383.7080752979145,293.11528948543275
2040.0,3440.0,16424.0,1784.0,1371.0,285.0,2090.160708536965,3503.079733205799,16512.251790228667,1772.5530935493396,1364.6196452609884,287.28301968496385,2180.0500703829316,3317.344915553757,16352.524008402926,1786.3189159967133,1380.3987780008656,292.0862826789279,1920.4038677298179,3296.6557486019774,16267.522026737764,1778.8205101929082,1374.6994929537777,288.8234212450294,2117.748649351197,3294.279002833338,16343.54992876151,1790.7458799366873,1375.7129104880908,297.0857509817501,1991.9640123983922,3536.4499202383054,16465.06854580418,1797.9605714059517,1366.1373953800353,303.8574455264269,2170.2006693221165,3328.875515289929,16512.06154438546,1794.6181069653649,1359.0332520235766,271.39689395331067,2138.0617790336087,3463.268076128699,16502.38721055407,1786.2422158584661,1372.220680660733,273.7403536588186,2051.6563773470643,3442.749320164998,16424.5105585996,1786.8393436044557,1374.7604986484012,279.76559605625084,1879.7117004359093,3481.641396509061,16492.093019033375,1795.4839599085753,1363.8014211736943,302.4836011888704,2162.686671098031,3384.612811130885,16504.40501391156,1787.4684944999776,1367.858491622902,281.3750729850934,2205.2748912463476,3399.0705363980087,16474.795017407607,1786.4193221842668,1368.6524211867402,290.50759832687453
2056.0,3352.0,16404.0,1816.0,1373.0,276.0,2127.8243590054094,3263.631505989674,16436.102131335807,1812.9373147611443,1386.8487832473209,277.06503385799505,1988.934926918058,3469.3126125660838,16512.27171043557,1818.281237401202,1370.9221318286757,288.0659336748934,2043.295917323768,3309.063907832567,16482.8969277261,1826.3995096768097,1372.964865005111,281.4249001060767,1951.7926949887878,3445.173941488615,16439.94086682096,1826.0689009933324,1369.7575964160696,274.2814454764379,2089.75280490524,3403.8329926325086,16424.03032294043,1809.5764480179373,1362.3233479823177,276.51702747510825,2127.966818115769,3366.9610129144125,16532.04023454001,1835.1983090023712,1393.2579500815575,278.46984820533737,1944.4253329321612,3412.5807582774396,16544.133742650447,1832.752856695982,1381.7503553758663,274.4557416376075,1887.2189721188404,3316.1327847622533,16461.421891021015,1829.5688307131181,1373.832762951685,275.26122012031914,1963.7558719513409,3281.726441545936,16274.986404871383,1833.0859770188686,1350.5264677968023,285.54650244422356,1960.615677235809,3247.601276735269,16369.789460427493,1826.7031724145345,1377.8195238466787,283.3754239489524,2058.2332381108927,3298.6971630602543,16478.28265525129,1821.6166545936699,1382.9684369706436,270.8167071897134
2084.0,3400.0,16440.0,1798.0,1398.0,295.0,2272.1312368032836,3447.07949508748,16412.974751224927,1799.9805151317723,1396.9332016274006,306.50032647045344,2127.84201114795,3449.084442224264,16356.97060399245,1820.5428117587896,1385.0320899004348,291.859655651881,2071.142348649418,3409.279143922099,16363.51702502071,1792.2676400293058,1402.9310038825272,315.5108318293647,2067.788790373675,3448.6298005644053,16412.198522497984,1798.2969195896862,1405.1690734574777,297.18067136401885,2016.0141455913365,3415.9677111562155,16365.345382086107,1792.442444618787,1406.6965182689626,302.6736514689714,2141.3406011541606,3488.3772251101886,16503.819038799054,1796.149067384278,1390.332572206786,312.05002502447434,2041.966737123267,3539.782136200226,16437.085895753964,1800.2928123655163,1395.4018470550293,311.49999120446523,1982.152886200293,3325.127427702371,16618.50144971561,1793.8330024867605,1383.0143723687784,284.3632486823557,2005.8098717468338,3453.6124256804,16502.852075541385,1795.802199093007,1399.717802119374,296.02993170838016,2182.6778506760766,3390.996905036599,16437.34080273889,1793.381473972553,1381.0754794174784,311.72408239177906,1968.5361376416113,3354.095956455582,16584.156407721446,1805.1587500634162,1385.252066460397,290.071802922641
2028.0,3436.0,16468.0,1760.0,1371.0,288.0,2105.3087921019587,3531.489841107436,16471.2509506274,1757.138424299603,1381.6148120139353,290.9903658514837,1793.8379811907741,3344.474358161805,16410.461572795248,1779.3050457887132,1358.8336178042425,272.92425289548885,2009.0341745275866,3603.0399926304067,16646.2438784131,1770.328920051907,1368.7676165750156,297.4748350978713,2003.9331660750267,3318.016377322192,16477.01150604501,1761.3904044852427,1365.1572122511793,281.2269101102137,2073.337302152548,3369.979384461352,16468.33698413262,1758.302046778665,1386.7987072454794,270.78614310761185,2000.5505123714897,3319.1357331814143,16598.509961283627,1762.9240819128913,1369.155984861231,295.3088754947031,2019.698214733565,3507.7089030387233,16447.409492758154,1771.9584811711968,1354.1441786914852,281.12413138610214,2111.8058821902923,3203.321248838701,16460.029761635287,1761.9248738907147,1366.002708683977,278.95539581192537,2107.073854750372,3266.36137639182,16424.899740077653,1761.515561027654,1377.4069740062673,277.91435008221003,2036.437128070919,3295.097245468898,16567.82487138187,1766.1153583064654,1371.528984496636,305.61814981555926,1851.238458630436,3491.33765047206,16530.72562670646,1763.4513825654255,1358.440985660886,287.5732672001302
2128.0,3408.0,16364.0,1773.0,1400.0,323.0,2226.206024841121,3407.2058437101205,16178.967245586891,1781.6639445963276,1410.7813077019478,321.7069535307554,2151.267063859582,3624.843446442888,16440.26268213182,1777.691723671674,1407.2203296702924,306.2880818120462,2045.011525478069,3640.9526137985213,16518.540429320674,1763.012357035185,1392.5361165821125,337.4679314214932,2078.3676397550807,3382.917448204859,16394.577249092137,1751.4579220776463,1378.2900821966698,331.03787250666375,2303.0626950835353,3455.739202551661,16350.03776244446,1793.670475892272,1408.6985558772026,322.92384489987603,2375.380547378785,3410.399285153868,16434.76252805327,1780.9401665627026,1398.1539974053535,336.1196806930783,2039.7345918034277,3398.9400588263397,16419.04847996203,1775.1384263388647,1404.212267918607,324.4436554939499,2018.6029591677923,3548.5934607843456,16262.89111380277,1767.1092154022977,1406.219824388783,329.5692465359814,2030.3788594406442,3374.0430567780413,16426.891917836205,1770.1409727499795,1395.672077103364,314.77855502785314,2170.424327399657,3405.654958484301,16160.096342391833,1762.9479285696477,1409.139150231374,327.1109114489594,2276.416144226924,3450.491506700216,16272.891140392217,1782.9947727605008,1399.2164964484284,329.64190450559425
2104.0,3436.0,16444.0,1814.0,1366.0,228.0,2106.9742421416695,3549.467642592864,16466.263547241666,1808.2503365787086,1371.2568794392319,238.17956223629457,2156.261622146008,3529.6393159736235,16458.38880668116,1801.542147012304,1379.179207082147,216.3309202646402,2012.9983960826683,3415.7010158534554,16581.7968778848,1807.5685086354133,1367.531371564755,220.36301465748528,1951.7840745730225,3507.1076973405684,16453.45600091686,1805.8019898461819,1369.2274017533605,235.228742251325,2177.5008682978396,3483.8471311737085,16463.098799130606,1815.0447020370189,1368.8626525314808,225.6803051913292,2229.319737627092,3652.6670401296255,16665.21054147511,1824.0578908041084,1368.6057385552278,231.996537045734,2153.7581657785963,3217.371411824196,16494.73095507227,1814.226817561712,1368.1820955555477,232.3746019231853,2074.1900686521276,3485.51854919509,16552.19650695643,1803.4483953020213,1362.7857318325894,239.01342122107053,1969.9877453228487,3328.7767171421224,16529.095845484233,1829.8601591837155,1360.9250231491085,218.83618425094426,2179.0410314188503,3416.8918333404777,16494.867339979326,1826.479306623358,1365.0426734276853,241.20109079091787,2016.0060674752972,3616.0871609054047,16571.475824540863,1830.394940114367,1369.5809955944599,216.0403930700937
2092.0,3472.0,16404.0,1752.0,1378.0,301.0,1980.6533838740656,3498.002583217857,16328.520217771496,1757.0289904003923,1361.0435609584335,300.52018217457476,2027.6156348682796,3434.601671730127,16354.262460127431,1763.9308217013213,1387.0015264765734,314.0367583858278,2121.473098044355,3529.8345539701063,16394.759061313274,1746.9000620296827,1381.097776718863,311.343579419074,2122.920335941847,3460.772315166359,16491.934118369838,1761.8998200744818,1367.5627716938131,308.3840080817678,2053.0147727284434,3333.0995600451406,16417.58589600564,1749.48526425003,1376.954625187531,295.74092013099283,2146.3492279179727,3504.1259105177214,16419.03718662027,1753.5613106881679,1388.4522147527914,296.4759186776107,2000.2494826559557,3482.586254307369,16420.76969422758,1758.660399285371,1361.473989307313,290.9581495145201,2011.781717985081,3500.667296069517,16354.407362753636,1741.664978667377,1353.3997724068763,300.2688403387977,2087.2319134446625,3503.377191682607,16422.76218237308,1740.5428544666088,1382.5644823903774,285.8416343484591,2077.4579006414856,3329.100526774208,16449.018130493205,1770.5956552088758,1385.740429115398,313.7982963712039,2061.0251230679423,3550.9454012769434,16545.476664014746,1765.692019289909,1373.4267883109878,300.8981299519711
2104.0,3436.0,16356.0,1707.0,1350.0,256.0,2174.233702378574,3318.641902290936,16347.531794634795,1711.3863620364775,1355.5483566646087,256.21488960318504,2220.0720225724363,3350.3910730894377,16296.08262770051,1708.4898974151033,1340.887040351139,255.10576016283594,2163.1096645329567,3435.119714471408,16386.786772408384,1697.7570932460148,1355.2579323205027,240.78242558983294,2140.4304134056656,3485.5570221230137,16463.870934051098,1707.493384281247,1356.676379938267,240.94261286639454,1997.1633591458985,3216.9787938033983,16377.317835900218,1715.3992385751278,1345.1511359852022,262.8970485786314,2331.332430709284,3328.5556120012257,16381.640685606368,1701.454952427881,1364.0191356590803,257.3293278452968,2184.0316989225653,3343.657814005933,16397.311387928636,1714.6068887903523,1335.3928703113638,266.54734301692605,1947.6887573237527,3255.6772052301926,16318.274709669202,1713.7288480098048,1342.709790518047,251.38323194340467,2033.7188776728858,3412.177488195663,16287.988253297626,1737.0020769108487,1344.4597511947338,265.6229096891966,2112.7726342591486,3356.312293399095,16382.870045247038,1702.9880637736574,1359.6632842767103,257.62754189021774,2055.241160577577,3551.4310149149005,16268.67438215333,1707.6164765909311,1353.8119478638957,235.89418535184046
2096.0,3380.0,16384.0,1745.0,1346.0,328.0,2220.4698090852394,3216.5016809863328,16423.859136628445,1744.7680551147357,1357.2081001327529,340.91519232721777,2041.6564138145475,3335.71211120202,16338.387369523456,1735.0886527991531,1338.199928605192,319.58891327088486,2111.010670319497,3373.329884512903,16405.97251086889,1748.2549041193924,1345.9988071485443,334.321868051691,1957.7154062254147,3475.582725137723,16403.991665522273,1757.1342070414262,1346.3095709232518,326.66076323078255,1952.4686688832921,3508.0479238646108,16466.872924211875,1745.5759791901123,1338.8628644546923,328.9945512776843,2097.834958805506,3336.4707505348492,16472.51794504185,1745.3491792493126,1348.6089213482967,320.24947331190884,2167.9696631049296,3271.5619008610906,16446.489866500695,1739.5231520687014,1354.2373719178743,324.5894051558551,2103.395753543413,3456.471770924553,16387.77925710111,1729.4523063254271,1358.1408822816434,328.5017647607636,2238.604841976521,3267.2185084160965,16373.169244736897,1755.5500618276646,1327.3298595722863,340.89501569238774,2113.69949748096,3398.7243286243033,16393.74902890371,1756.1133773783472,1347.4055864022605,318.3959756231106,2234.985208024864,3222.1071066184836,16272.227367459653,1745.3876921573606,1342.7599988755921,326.90445817150027
2092.0,3404.0,16388.0,1725.0,1360.0,285.0,2108.940818266816,3433.1004395491454,16246.113640156707,1726.2422806648058,1360.4844035020394,282.806358789254,1761.1488927811397,3418.123308855258,16368.874453297412,1723.6683324046105,1363.8939357443853,277.4891260455271,2311.352088920545,3420.4481798492,16340.678445164898,1726.8961345772695,1361.4355533410198,301.0053663320905,2172.0570314026822,3485.6949316649675,16471.82440254121,1710.0698757173272,1351.4303258871496,262.1462983014994,2031.7623657803551,3466.8799853760574,16436.060445090665,1722.8944813284224,1355.154963380526,282.91111856630056,2205.0809123002205,3343.5198004387157,16392.821359194826,1734.0825794183615,1349.2110803819435,276.38024803407393,2117.270451913644,3554.410501575394,16256.180747363578,1703.3238577446805,1346.4966898614832,266.1293499707185,1975.9934140331234,3487.6324757377397,16403.89154092853,1717.133972414555,1340.3240413510762,273.9231543020448,2077.236191297417,3355.778614639406,16496.829121532905,1722.5509203709298,1366.543028640299,291.66541206069206,2058.4525857290155,3318.571662356513,16313.39350656097,1720.8175416795943,1358.5829472357702,298.4299643678277,2287.9761002514924,3567.0552331439503,16237.624535551638,1729.7409094903114,1359.0735607394472,269.75377316388983
2096.0,3396.0,16456.0,1710.0,1320.0,309.0,2132.751653325561,3402.83960298527,16502.62163514899,1712.9394868201116,1322.9247186749374,307.3788955475743,2127.1340881906267,3394.986859874524,16400.513141296615,1712.0205021811184,1318.4575021783558,310.84122855638543,2149.916043820332,3492.7785119078676,16465.505787855287,1716.1921904537046,1309.8037377669914,315.18510739801985,2117.135665931111,3535.845718696251,16399.62992735816,1712.4882284150174,1327.1816859568696,316.0879413896101,2084.391030354776,3371.1829269673544,16463.86109356361,1704.041008198321,1316.1717455402543,311.3000514115708,1889.9283611790963,3289.701340212573,16459.74383166566,1727.938565094807,1312.8052151413603,311.3314275979407,1978.4711626293572,3403.220351886487,16447.857429418455,1716.5226818991557,1322.8460002344916,297.82566702318246,2048.97989611049,3361.962455271476,16465.021747760657,1715.1662540360767,1314.9019988289567,291.6195190738351,1967.9553905456823,3317.1196766737894,16416.913974632214,1718.7247745954885,1318.1194465199178,320.8956089373999,1996.2595094244264,3426.197841687679,16492.820941851183,1723.0540191649395,1329.5080373598043,303.5517247797766,2141.7210315739108,3438.5463976480833,16327.35314118556,1703.0324857481519,1315.4620425382398,312.8447973631049
2104.0,3400.0,16372.0,1724.0,1364.0,273.0,2172.847418305746,3410.834940913325,16383.174712165113,1736.7903569139144,1357.4945206188418,267.64344821007774,2054.1004901840415,3579.000512315474,16613.4655141139,1735.3415427477653,1367.307139356025,280.23210836740225,2113.3735026982745,3635.070289784282,16482.44275422588,1715.484639314053,1366.4307491541963,270.22794899506897,2184.739820418239,3439.717638684517,16447.382537471036,1731.8273180128037,1360.456701048591,268.06051735176777,2084.17326927933,3638.754656614382,16453.155171867933,1734.0760332467557,1381.244421460346,265.24686465733646,1953.624900287761,3420.53325402309,16440.789338069913,1701.5680857887562,1375.73016726353,250.6659342607424,2215.0344245136307,3390.0095078224663,16469.188804579357,1713.9553251686052,1368.3994619460213,275.0357941823647,1989.8071073959093,3520.4471059451216,16308.405336993046,1724.7850892189354,1362.6170954719455,274.5450442186841,2121.280191100571,3421.950723231213,16420.15584748563,1712.4362817290762,1361.1605709769854,257.6211696520351,1915.195254488057,3312.504519331189,16360.550514651728,1722.8841206759398,1354.2056934587135,284.01024927546496,2093.945257091408,3414.0876364549476,16155.84443030762,1718.676740607586,1360.6244026551608,282.3905907065515
2152.0,3388.0,16340.0,1698.0,1368.0,270.0,2077.130386718261,3287.782753647358,16158.127964850419,1720.0471761970834,1351.708690488599,281.1382980542144,2252.920300206665,3326.2243028767502,16390.446736233866,1698.1420495276323,1348.2917737093646,269.9275264778752,2075.707530297154,3462.0586315579217,16466.358710926288,1703.4844736299954,1364.3402580885595,270.18910537897005,2068.8722945284435,3252.0302378213055,16469.513089272237,1684.8517442541863,1389.2820332996794,286.47199460729246,2106.00819883129,3463.7631719100714,16422.539522737614,1709.890232638605,1356.6981765716384,251.94938752474815,2221.967803814352,3347.8337567685526,16223.117205149683,1695.336047577773,1365.1130718037045,278.2780472857023,1986.8613793885302,3130.3435128629803,16455.128250002857,1715.579648525978,1375.4681722505866,265.52452695771314,2023.3858511310323,3452.9031565028035,16380.774223658775,1696.2919622141878,1349.938630385936,262.00795776942897,2012.7603544917158,3297.421566259831,16380.164994952105,1685.2373974074537,1369.3631164335295,280.2428211854784,2058.4447941089024,3485.0441902162543,16290.881639244943,1702.2266376087846,1368.8840114210147,272.1156832030553,2197.05872602349,3383.9700535146267,16514.681691133716,1714.9884464217762,1364.4188008513192,268.3707668427536
2076.0,3388.0,16392.0,1739.0,1340.0,289.0,2023.2170150845845,3469.5016234823265,16262.81360546272,1749.8859842974452,1350.63781799923,297.1309485259103,2028.0884522271872,3421.93553398216,16408.229256488787,1744.020119320656,1328.759451784628,288.6150392610134,1989.9954419771252,3427.327736802419,16372.414447189227,1736.823873134,1338.1900899273132,282.0754118440142,2013.7635658070994,3309.613389147702,16391.821178109887,1738.838936613673,1360.7202019995884,288.550614529509,2084.4761930012155,3415.7176131897827,16428.101742073082,1727.015242590209,1327.1430694968803,290.3642631200596,2166.6010120761352,3448.6096142699776,16416.413485942507,1734.4745949098606,1338.444592661901,272.35290476067627,1991.6941818236746,3343.4651804081377,16344.295087992792,1729.3830767163652,1339.9020756690975,302.36901344851026,2082.420327337166,3366.5385997123267,16371.829411878345,1721.836753200716,1353.545206563034,289.4331453051067,2276.802762117786,3274.078958338342,16438.597161784233,1733.3748082525697,1354.603271028597,301.7816216357214,1877.0385713493472,3459.6584122997992,16351.670142997662,1741.494734833151,1339.7671727432441,282.41935658545424,1977.3133747632223,3177.4815020691008,16319.526897250564,1748.4940993979862,1342.5448111958476,297.03992759407305
2084.0,3384.0,16448.0,1745.0,1341.0,284.0,2140.527499969969,3245.32732273705,16353.170440725826,1733.960267278013,1361.3067907848445,299.32022248998635,1966.1841897532788,3478.398472878974,16375.526365460002,1745.284388992048,1358.0956686402546,280.7356157812817,1970.1567275557363,3479.673122980892,16392.4401904263,1746.4404033544556,1351.0901456122194,283.352888760281,2295.94107108185,3468.7084619846196,16448.08967894661,1746.095203189984,1344.844757883483,289.62212483730445,2259.8889871371525,3526.8405823003745,16223.638644124365,1719.1206431780076,1336.1415598058272,291.15500412292477,2157.870607240473,3539.94790442841,16561.30448543851,1768.5859441167772,1325.6486114362633,282.10298614988443,2060.9077872659327,3278.671087546772,16416.38538835822,1739.5084454892624,1353.7557360662506,288.0552070442167,2156.0384102806156,3122.777397513723,16388.839961577913,1746.1523826722228,1338.1328746217541,281.7666073022557,2180.3460219739354,3339.8467847799466,16397.72673181034,1754.4874466299946,1348.679076176319,292.66857428420246,2029.3141090008025,3383.890340377188,16646.476116030957,1748.548103562132,1329.3475286301596,299.3543176598472,2183.866209076876,3290.07082338695,16413.057590143886,1737.3184002264995,1332.6567653508837,289.76952018747045
2072.0,3408.0,16480.0,1752.0,1327.0,270.0,2131.4661828104604,3395.4626688413905,16344.452684259191,1763.5005224543247,1333.1424410273967,266.13514639469184,2216.067599641089,3439.007928941368,16524.209385664017,1760.4878521506741,1350.236308608863,263.99610730388235,2228.468316966486,3252.572925184866,16321.280632927745,1751.9731151898152,1313.0621492339164,252.67687045432814,2140.50369991267,3507.757003053095,16457.35705438009,1785.1461720648867,1324.3739142723896,273.56823631432434,2047.9997011189896,3570.6471416999557,16592.198093233572,1757.4967116365278,1327.8930661239997,272.5542602934077,2027.3846728932044,3299.7182175563426,16537.232827503478,1732.4364422201365,1343.3276011242897,280.304672074673,2043.980025296884,3468.2293399536,16534.07772216367,1759.7556086244247,1318.7210744990969,254.8203949436333,1866.3296246213106,3307.994555076352,16536.6853033532,1759.9923998278898,1314.8805259442483,267.5429244999453,2164.091028909057,3457.808492648601,16345.801077735983,1772.3859880814507,1323.0138140863537,267.0388762800781,1904.4105980484073,3508.8343311210515,16373.951665995768,1751.3958500673127,1338.620269463674,263.4141134329908,1957.3289499660023,3313.484096015395,16287.562445387817,1746.55482560272,1332.612938841633,261.9668509382489
2076.0,3408.0,16392.0,1549.0,1258.0,321.0,2144.3681137136405,3334.006287687501,16207.261145295332,1552.868304015292,1247.8517029983923,307.0927776540002,2227.594197485248,3406.2388050675127,16255.360130140176,1559.3934284341237,1272.7364418601783,317.72397565204636,2025.4662152579983,3412.2421471389453,16218.233857023928,1546.5717553648124,1272.7638641581143,319.15584120410296,1963.6641628394307,3459.338908903927,16353.23022812855,1542.084855087904,1249.808276679661,318.17666225558713,1999.3471489015303,3271.9923811971903,16591.277513162368,1540.149846760713,1266.0002922945505,320.3157866320066,2199.379513216525,3364.5227121074954,16374.485630625208,1546.1530594422516,1248.6846168115683,313.709086492423,2014.6442269264116,3161.4963907793826,16347.83513387924,1531.6972885718103,1249.573677315599,311.9625521548277,2005.8029976625605,3196.8005634913857,16403.685999275076,1551.900851972575,1254.7589268225595,331.43831131077366,2181.896334400111,3349.3051976156203,16481.53303579562,1555.4151087940886,1260.635391545388,314.6576929554389,2108.0419969276,3527.767158728618,16457.42863219691,1548.964324943659,1274.7189709049885,313.4178069248595,2107.0465239472815,3380.1192678141238,16309.660956533244,1552.5840573097394,1255.3764474630873,328.020819286316
2064.0,3444.0,16492.0,1642.0,1351.0,233.0,2045.799551247855,3406.264156291706,16524.05089861612,1638.1528099682987,1349.9616032864856,250.08267482348427,1952.944592672175,3414.025219227801,16366.650575639596,1638.4692613167738,1366.7416670281293,246.48566003671746,2180.3565858091974,3491.5411024959913,16514.667263188265,1638.1819333812202,1349.7524736426776,241.7429382572479,2020.3462324372877,3464.378060910306,16719.454718064295,1652.5624245612053,1363.967851835599,231.31222620602,2172.3669005346674,3453.4574677188025,16401.11889959259,1657.7497170754996,1339.1634769277277,238.92112123068603,1841.395339520029,3478.035355760172,16570.273548817513,1644.4855016363167,1354.5657617682293,231.62913306527722,1988.1641809241075,3463.7136040233822,16478.973359291456,1636.967880689482,1357.8885214524655,231.30497335264153,2080.776251988551,3426.172143512355,16303.607602352977,1642.844439310623,1361.6376334491172,206.6681137050982,2216.6353146508336,3538.5588908907043,16528.575291073565,1636.8686560178912,1350.068014394518,217.9486772088524,2170.8586769437416,3426.7349384287104,16683.634706329485,1628.775090100356,1352.1445377560756,226.37937446747955,2188.087468748243,3415.078088114122,16679.910418591724,1633.8558619414741,1352.2693655051792,226.90060420996997
2020.0,3376.0,16472.0,1705.0,1377.0,300.0,1926.6682272493779,3254.951189737353,16607.70455138082,1712.0829520438851,1387.5703459368294,305.2469204964376,1946.2669762379148,3515.6817642653946,16485.741409256472,1704.228770806235,1372.519928379315,291.7435978506461,2191.637977972274,3422.8570030393525,16456.236985019223,1699.6594816215863,1354.2082196761737,307.1880999672895,2232.9802658741582,3354.0886268048553,16466.34807468478,1697.3387038430062,1379.1583742774449,305.9732967716543,1961.7625515039986,3211.953013514535,16561.087719971503,1693.0961396726505,1385.6560605596248,306.7934501462998,2026.122051582231,3170.3848270697667,16664.313353214984,1688.9875802980869,1380.5002120874296,311.81496836154747,2068.879135803569,3453.3183043310137,16546.40230595513,1701.28321847303,1375.5007232134412,295.2417769078725,1985.0805559539447,3233.7633843333056,16463.43916607866,1702.0660680915196,1362.4950242075572,288.4335867993001,1844.5132743245897,3159.559292260343,16592.931104361272,1706.6961276556883,1390.4037600136812,295.1758115213393,2093.104403281468,3428.8220634776562,16406.478486648983,1692.139962596293,1373.1436181499234,301.88772009450236,2002.6861420075838,3464.656707239788,16627.995662308986,1701.1468864923897,1367.293905148934,312.86251567792004
2140.0,3324.0,16380.0,1808.0,1412.0,279.0,2192.0930465167094,3484.039487841412,16366.401831534045,1811.874092551109,1413.2008167829397,291.03481437089704,2031.934890912967,3334.065684187333,16447.37023749038,1812.6192836338703,1410.8807099842038,293.78903798762934,2018.714959009476,3367.2690945504096,16471.663271196525,1815.0876480543345,1415.2530099616938,275.80261341934494,2086.7949869749077,3413.811544655529,16378.44658928737,1810.7165550728344,1432.6476216410827,281.8878495435599,2124.6440351169354,3212.519847057411,16416.57992540935,1811.5920334029263,1401.2091952895253,265.63458876464847,1959.494006315154,3187.7106427100407,16504.493619064226,1805.9658989165,1405.501021969173,275.6556131061229,2172.953936980985,3179.160481185073,16455.82288233674,1801.9924231363611,1409.3933202210046,281.3036988181939,2123.3144708667014,3257.3634842713986,16430.14336387185,1800.0589798263659,1386.3862844545379,275.72213437045036,2194.2872427161924,3331.493398929592,16386.14698516977,1806.7471953664824,1424.156459533046,257.2416394455395,1956.6330051795871,3292.619231450261,16450.055152264158,1819.9985827647545,1411.7911432002538,265.3150490131806,2115.0200705436305,3439.7889171970646,16429.12921389803,1804.916456929929,1415.1835917130124,282.38452140703083
2144.0,3456.0,16528.0,2006.0,1474.0,292.0,1958.28956628604,3446.4270313640473,16547.11298247983,1996.8645163823144,1481.7652152816333,295.41463809867724,2247.841049080545,3315.5190487068135,16453.02632880697,1995.5926259796272,1475.345105866139,286.1892213739136,2124.8661558837703,3518.12354119988,16503.04687414386,2006.9299807519426,1477.209723635489,297.1447171069376,2205.853128350159,3415.8519690797734,16567.561615816394,1989.4779654953793,1483.6211949369595,291.99709329490895,2114.0577183894434,3313.3385056556144,16618.752541926362,2017.7827237601139,1473.2621229906583,286.66466459426493,2150.1272441392352,3515.1405628069288,16500.138112047443,1998.4811468646765,1480.3975311830418,299.8859915191308,2289.194916651971,3377.1676102285655,16469.78840277808,1999.2660343699213,1471.2948362364696,306.92790897181067,2238.3215075689327,3329.2296738491204,16472.93270226941,2022.847482104049,1457.6507594319478,282.18518782944545,2156.5076017783545,3513.5757671678193,16517.056304190395,2016.9617533245344,1479.7286995434883,305.36822367417176,2058.0371015028018,3517.604199483926,16575.74127612309,2009.4820601335985,1467.1217919025373,282.47050824304904,2146.6989308849556,3533.0783885753976,16709.2160361863,2026.3859072753155,1467.2921926234467,303.1109119072741
2060.0,3432.0,16524.0,1712.0,1313.0,308.0,2097.3637495370267,3501.2374501973163,16399.147113350384,1710.7422985671674,1318.7944399623293,320.57122218248014,1975.3688286140537,3381.5002861728644,16532.550463544263,1712.758744866477,1307.0047105882227,304.3222293755056,1964.733368895903,3422.6067278998153,16521.8420713227,1719.9180268585294,1288.9048542836415,303.59500018784786,2049.071028864724,3368.4728444848765,16517.577524080018,1708.4921841782461,1303.8375243745772,301.1857609711742,2101.6712249515326,3420.999429205728,16658.612106396933,1704.628682075459,1310.849189405356,307.3125284986607,2103.8573595535786,3441.737903844987,16502.398259641395,1719.353213163673,1320.8295086966555,303.97257376986954,2072.550339324182,3510.932578514705,16460.042906731724,1701.8907540192135,1321.0045065337756,302.59959728139995,2091.8667460472193,3603.5002079379938,16588.740807377788,1703.8272947193407,1313.5806656286131,304.3467029576834,2033.4795534826414,3573.0135577028022,16696.427914084168,1710.9812100304332,1323.9118138960935,285.9808919503033,2076.541759621823,3309.0584858266343,16511.580211270153,1702.137546150119,1309.232505565868,314.2946660621034,2135.84925227825,3419.989767360611,16488.453424554955,1721.764301008818,1304.29137068807,320.57050593643277
2076.0,3260.0,16140.0,1635.0,1318.0,247.0,2046.0117829400408,3129.579675224612,15946.993223309892,1639.884569546195,1317.8700941458142,224.50161290275028,1975.7756028518072,3292.38280631029,16352.854814402006,1619.170086645005,1313.8792909813094,246.0928922835704,2047.103880799159,3274.822004319097,16168.699747890007,1651.6562620483403,1320.5227285467543,268.50730237476216,1875.8500196367124,3198.21822601562,16020.717789731487,1629.3413952059116,1325.718482860704,246.2806077951206,2058.90995205127,3370.7172893342126,16120.250250511821,1653.3375130877814,1326.0798640862201,260.0991296915606,2168.7797792809433,3328.908249600602,16160.479132111479,1621.961555876798,1313.3567770066595,229.91958538729992,2137.221239076645,3368.0685146088827,16029.315505971703,1633.5244439881849,1327.0678511350022,249.03436945976458,2226.8050074306107,3258.4288019216515,16102.627018225701,1620.9120048230643,1343.8829769041722,242.22706145794217,2166.8450368976187,3256.059773640276,16225.967479865598,1655.6367241834878,1302.3760954152428,229.05161626650766,1886.7377976377388,3293.753522113704,16057.628072357877,1630.1542730145268,1310.1853277064145,248.55373443909787,2084.102110516303,3359.54818318611,16182.166915280482,1633.4552588618537,1322.7603150163527,242.06873676613213
2220.0,3240.0,16232.0,1969.0,1486.0,275.0,2149.5912823602303,3266.531731995586,16222.042763605386,1979.7785632279135,1486.146091994844,272.6836880176825,1962.98041388282,3398.449181896731,16124.484864767024,1971.253177770355,1498.4798946207204,284.8769705374861,2258.506220953694,3224.412422070421,16304.03038334865,1952.7551081260108,1486.8143715685703,263.226105794949,2372.348572656202,3184.9829694200625,16244.564463526167,1958.9068026301754,1466.1606008908054,285.2667543906367,2343.3454171584585,3307.643656711182,16094.015563101817,1966.1286533814932,1502.9546280604495,262.1788920476445,2255.9688536004633,3198.1681405177446,16145.485421308864,1965.5538893211256,1488.9808319590475,295.7784570385776,2245.121613738417,3244.939071160151,16290.524375548279,1979.014997240693,1488.3065132242239,281.0400780587054,2356.319828921819,2994.477340792715,16226.690134398681,1959.186589459047,1475.4470769766,280.25413335109096,2262.83258019585,3077.8397242021024,16282.577407536037,1953.4547565633393,1470.3193903294982,270.6549571910632,2353.233645785895,3268.412700672831,16271.860052477177,1971.070872915367,1489.0266507850363,267.00601744552426,2170.414185663205,3259.1781044310633,16433.662632015374,1980.292547217412,1494.5171946110472,284.9712124275943
2008.0,3424.0,16448.0,1889.0,1394.0,316.0,2055.5658034375447,3347.4913594230516,16380.99191175797,1888.4781034737289,1402.8654514871694,332.3807051093207,1967.2839877413185,3395.0843928724557,16587.920173945407,1883.7082457492413,1371.3926528913232,315.8163661462355,2072.234672192683,3443.3822701983204,16404.49833233322,1901.391489545107,1398.0098617308977,340.1447413581762,1948.2026484594755,3578.631616417806,16388.844501900403,1903.7530551025386,1395.7925828565876,309.4303530661235,2006.1019638405883,3488.595908088293,16338.458225390948,1881.3252877239545,1392.1558779631782,304.8186845763903,1875.9371380413706,3619.1762721790897,16570.490656117392,1898.579870980429,1398.7493217703045,300.91188031328295,1875.362318188705,3370.6529906521396,16455.333520578344,1899.8372508851867,1393.612573650491,323.58645812216474,2036.7086803513653,3334.518355424791,16270.11127813589,1892.8641276210867,1407.7671446432403,321.22628101960703,2038.0536209508273,3614.215707284101,16455.895614123936,1882.9550566075832,1400.5406750343338,310.69853661160715,2014.9380527269068,3380.347417195649,16451.772178613617,1903.1331396301773,1400.893975965329,306.67746786458275,2192.1069600658134,3418.3748139338327,16383.599856601533,1887.0795793058203,1392.6040399682665,313.6469880898258
2024.0,3404.0,16468.0,1680.0,1368.0,263.0,1957.8591013197447,3412.8141451786473,16360.83821925385,1680.406538208606,1354.5926374889918,276.79896288782766,2093.0733282987035,3543.566835854955,16271.002795105958,1683.708443144596,1358.9877717008253,259.7723077545073,1999.3356689862287,3409.451551019605,16624.411779934573,1681.066481793115,1378.7284344821558,243.31649337620132,2027.9072800540628,3466.73884329931,16494.236028097155,1670.6518910480027,1377.0779319901576,273.3345689053491,1927.07946062474,3360.023924436083,16372.283074124967,1673.9283650948462,1366.9805832591887,255.40199771099347,2010.736464056808,3364.4079284153795,16290.947242979772,1668.140876032411,1382.574462853963,277.51960752793735,2147.828113040912,3490.183626659333,16450.606596409372,1692.8039653326755,1361.596035967152,246.7721254809745,2037.1507370769652,3438.4536219171423,16489.25429680804,1677.1917797576525,1374.6197443825972,264.49392394658565,1946.6448802119442,3269.3713552020927,16262.986356054282,1666.7690097824839,1378.6754763035506,256.57745277314814,1820.2125342276609,3390.1712600291667,16407.403407725233,1681.700184970796,1369.175668446745,255.0179897814226,1980.4471404929116,3439.6002831862625,16376.875048427706,1695.6713225977016,1349.8139090266534,264.5590466675057
2012.0,3204.0,16252.0,1429.0,1250.0,272.0,1945.4443561312937,3195.6069137272993,16259.749705666693,1412.6538512655457,1269.4368919866833,268.5209507076737,1876.2288837951928,3151.263970776067,16294.352819688163,1429.9998542242367,1243.5219217627339,268.62381030658963,2190.651115433535,2981.0242343129994,16333.360205340894,1443.1926899403622,1237.7949064058066,270.44782474401626,1826.112423748755,3137.0999602175225,16274.32654737432,1420.1933195662916,1245.131589219566,267.8404802573667,2122.852609538893,3341.6729126175965,16304.690567977153,1427.287579723046,1243.0498362144947,285.37104966244397,2308.8597799861527,3188.449231660176,16397.971808137583,1424.3303417659095,1265.665914734639,245.38335204065493,2000.0546782658998,3044.2023201552965,16197.07522818048,1438.337300340314,1233.4983969580217,254.8661487980786,2044.900139405807,3178.5879268961876,16095.246449755112,1422.359162466182,1268.8101998713882,270.8243959413099,2086.302931406752,3088.0277362443653,16313.79199136619,1443.5007000062215,1245.1300634354889,280.53021191575203,2234.0845064826276,3184.735120684334,16381.966154906288,1421.5597753831175,1255.0812055047163,251.4203185740997,2026.7938965533995,3295.728520822369,16157.411943057177,1427.959781156944,1250.868957951942,276.4844372934526
2088.0,3344.0,16404.0,1795.0,1397.0,293.0,2023.378938729173,3444.58337874532,16441.645348779035,1789.480684387667,1392.3715113205355,285.60810727408824,2013.0431770309015,3368.4717221349456,16386.92986481887,1804.0000893056679,1396.1740289247803,303.4783294509272,1993.6741411461433,3498.8300640972034,16207.238360081335,1790.7324051683192,1396.7234952270837,278.94220103468757,2038.9320312338646,3278.8472778219584,16516.25183678254,1798.7926788542918,1403.9504235451197,295.5972850215882,1953.8182996120036,3171.5271738394626,16417.61808048374,1797.1672582488936,1400.926637250058,278.400314257531,2123.850280045263,3327.298174384499,16500.299313306507,1806.8710709536804,1388.9693849172343,281.5406086164998,2095.3232003587327,3243.8318017831293,16527.24501439089,1806.2263677740398,1400.0694687342009,281.34496014441277,1939.5556050243445,3652.4885179806074,16247.829907711437,1791.583202113414,1402.945994469945,285.41561905718686,2086.72014118073,3320.4644007565353,16445.368025645996,1808.557602618899,1408.9166195048567,293.0027542823074,2026.3040554030097,3174.750583846753,16287.491619505432,1794.6007764803885,1395.0605768611708,295.6103589929004,2114.5471708712867,3446.1172966669187,16325.9909441401,1794.5482268224162,1387.7970415419343,304.51582473861976
2088.0,3400.0,16520.0,2009.0,1439.0,268.0,2070.426831467982,3349.775454682094,16461.745422635355,2021.5516955913313,1448.527342620449,264.18044371089314,2144.519743875054,3475.037280862389,16512.41780357315,2014.7670472748882,1451.3050651178316,276.6714848646434,2065.5277390920037,3428.746164185921,16563.465961613605,2003.9754651664637,1419.456208227291,283.5772193984326,2182.173915717411,3236.7750121879444,16581.578380680345,2008.57586404133,1440.349618534918,279.5350378609279,1920.742071937792,3447.7196901353464,16425.97768664646,2017.0879156927856,1442.3061571041064,267.03922269890757,2178.557032564641,3445.545409505793,16615.587396361887,2003.952035511057,1435.608292166046,273.8680496478472,1908.9070681407818,3293.371504419014,16526.606093661663,2001.082504096772,1443.858304687098,266.22704895283664,1872.9270150401674,3387.4414490933586,16680.879046990816,2011.9591546035665,1427.6888682673316,262.3595672870994,2042.5345792394453,3352.8439049875187,16452.08192936124,2008.2213016063224,1443.87624224195,271.50331714364046,2014.5705062491393,3406.954860553279,16386.5578046144,2002.4000779590638,1417.4611896168662,252.95467650563964,2158.246244733482,3442.3698268443586,16586.832654885937,2017.818753265012,1456.940114863449,267.4405956306329
2156.0,3408.0,16408.0,1710.0,1343.0,287.0,2112.6445822591354,3429.6966504948086,16336.54922267928,1701.9204567147472,1340.530673039851,275.8206338057335,2195.983783310627,3332.113311312638,16497.469911961507,1718.0203661839532,1334.8143094253624,268.3537484549574,2290.3523636946916,3540.634448616285,16215.66846541728,1700.9519644416048,1354.6268085501042,268.44246401362733,1955.5923163740938,3386.705575190652,16376.87957649915,1710.2659036164046,1345.719352071821,282.8819969115965,2066.4237410568576,3454.266110255032,16453.247765442822,1710.0285237979253,1325.8086470427677,277.66543375108074,2165.4671712514887,3424.7902375645203,16444.734536328673,1714.5483861737564,1337.276026520893,276.7303908842938,2096.786333321353,3354.2029543115445,16241.180200752291,1716.8443726046737,1346.6589568049421,295.19766782685093,2175.9125423391674,3428.9164209661926,16365.01453527829,1725.8312940295239,1337.679043206367,284.7583245379808,2328.919198357254,3572.0890496817547,16460.292632593253,1704.0940056919742,1345.8127949121383,286.11183907114076,2100.366597094171,3355.371573767258,16421.73256503194,1739.1627983651654,1339.9380763897495,277.8831540228232,2229.9493061253756,3330.3086262327483,16406.84409584468,1717.3164596871081,1336.9603859609833,287.7201455133743
2104.0,3300.0,16344.0,1583.0,1289.0,282.0,2190.6300316793,3063.561431817544,16437.308266203418,1578.5302615698333,1280.1387195660818,284.0392609236889,2109.16735759732,3303.756966860701,16390.760149719186,1583.0319012873854,1301.0631316669846,281.64059184323224,1987.2242581315688,3357.973131202747,16270.46956726268,1602.6351633052602,1295.7510483540207,276.79029955818544,2099.9930833381736,3360.9478593416275,16223.902703979862,1599.004715001341,1298.320964035097,277.2970625582785,2039.7152195586725,3445.896218895136,16275.221962798843,1583.2478367351298,1285.5335979017984,291.40999938671973,2156.6755400768725,3071.1976326337717,16357.524470261182,1575.5043643451104,1284.2032255504073,260.8516830029445,2227.5280356809308,3396.0039385409273,16362.043989186175,1592.9895621034616,1309.6576740865723,280.9886409993486,2165.4496987187244,3212.501363128996,16330.366259220971,1591.6497348982357,1279.9227056003817,281.2295096321097,2162.8007816179384,3183.091363083495,16216.26484491811,1573.1398314965634,1290.979680424223,272.52858726276537,1988.1663851708945,3275.948231426829,16260.905731531751,1586.814623612015,1290.197399151268,285.09439804750036,2042.457857425607,3322.829130340118,16407.726338290926,1586.387770433614,1296.1171707658345,282.138908145385
2212.0,3392.0,16392.0,1804.0,1371.0,290.0,2342.2790498689405,3252.617604713067,16505.074883031866,1803.298843257786,1366.5342391826962,296.4886202294916,2299.682876271712,3484.183868850401,16361.128313382258,1815.221836142793,1381.8612722523937,277.24728294470225,2149.70535812244,3443.069773755524,16590.964781392675,1808.590972555121,1361.8387144603419,304.59517874063704,2218.9172389438477,3188.9817407020946,16357.474327613238,1808.0913088509606,1376.1821088169809,297.1448526121801,2272.9610637777673,3307.570879782871,16362.53773877219,1808.606017179864,1373.2619340925812,293.083042588768,2186.679003045323,3402.402583260519,16473.170354051294,1813.0690072848731,1376.3106490199505,291.24198724231604,2161.015925543331,3258.905889421954,16472.909631508417,1784.4831075647842,1372.7648041023808,282.6308226103919,2351.600606185188,3434.355717002802,16216.79402610349,1796.6854243434911,1396.2746621914705,298.4439911314528,1989.2277221047855,3330.582740807848,16285.42692240186,1794.8803255552943,1384.7709965323038,287.6538947876123,2077.8507936700034,3523.380990583883,16389.374131499157,1813.236220474264,1385.6355779091127,287.83748683532036,2322.136599100256,3569.4888759687424,16420.31058671125,1805.3249991478428,1368.8677959725553,283.49690945991784
2092.0,3448.0,16436.0,1951.0,1454.0,258.0,2165.3621515184454,3529.0988105571932,16466.92552972042,1949.5615356267233,1448.9912041364778,255.99142473895714,2144.4534713819307,3357.3052428948945,16226.4008249904,1960.8767358195084,1451.3757210495603,248.03925392422292,2050.2281714177907,3452.014087063522,16359.573044529881,1937.9272634900758,1456.2611188457015,261.6153171191012,2057.2731595676673,3597.1503881283775,16746.166471250493,1958.0719417502717,1468.9491902493849,243.58853444960283,1984.592457021912,3592.9962213659305,16533.91226639572,1959.6501353585293,1444.688266249318,268.444947610592,2236.298184208841,3366.744326850875,16424.57994912324,1954.29293243116,1448.2695378168123,262.5625348496644,2161.2239655036883,3485.652188801472,16482.44664884547,1958.6675381234656,1442.5355017406343,238.11498474796932,1927.2636014684822,3376.5849568414283,16421.87750197151,1944.9085805022837,1447.4298612743462,269.50373368701355,2066.427932734684,3404.3152442235723,16368.895802173689,1968.460206042155,1463.5679592709903,252.119854208584,2291.3743957582765,3401.094581301689,16434.79721543583,1955.5978265648334,1441.0459771318542,260.66187392325367,2075.0204553839235,3434.270388962866,16501.316075621533,1949.6979907223133,1447.1980080259502,267.6298604091728
2096.0,3420.0,16480.0,1738.0,1355.0,302.0,2072.227325443682,3296.3800331845955,16541.922112403892,1730.7695659099797,1366.5339522514878,296.3662038386106,2205.6366973223567,3550.5136799208726,16589.663730070246,1743.7350985832848,1370.2332333263087,289.2610757470963,2015.7675067206533,3280.620514669026,16652.9456843378,1734.1854335423516,1362.8290321486957,307.7225366431004,2071.7594265509397,3511.46301969793,16481.40135478849,1738.810626514157,1352.2243293015129,291.6491219005809,1928.6672065571522,3551.2379598365387,16428.734609261373,1738.8220840340887,1362.8630600801707,303.34864519357194,2055.680369320051,3393.8989051953067,16350.189877155533,1751.5612871870976,1352.0603746758186,287.8654561895972,2066.9911287182963,3263.560130627649,16542.31951103301,1739.9667599424638,1348.6946825869575,310.34520473439625,2054.9669880048787,3254.39592459475,16606.50440624798,1725.929277262812,1367.8199748157551,298.91405225807387,2154.6637336359663,3559.967798026683,16453.60445397866,1734.2469537636096,1364.5248064953055,311.4391370221883,2119.269279931494,3459.599270692681,16385.498910707127,1736.3132245097022,1342.5072895041822,312.4870762192663,2110.2348919313326,3231.222209760776,16600.332290189792,1741.7804218116107,1371.7710269798129,299.28208660229683
2108.0,3396.0,16460.0,1677.0,1356.0,267.0,2175.4299169024507,3328.4873812171627,16502.720251501076,1683.0314964876286,1352.0139652657092,283.324087466967,1950.108418861651,3372.6938020702537,16360.737606545801,1669.2867451857967,1349.152067977216,257.57321649946135,2013.524428838597,3241.281798838934,16452.380449654585,1696.4044823794607,1342.9065717419496,265.9405347077276,2309.1289770132385,3386.927733792456,16481.175006876576,1688.3590197076312,1354.1859624040555,250.4344525216758,2083.437311154188,3229.721074825615,16560.169299790312,1681.2481018492206,1361.2889901363449,284.03802617642395,2156.0295759046867,3389.0058611192967,16504.51164769819,1674.1906852213515,1351.0969755807885,278.20138652250057,2053.1540547876907,3432.8499017796867,16482.744592182386,1680.204004414586,1357.9055488350702,274.4045561010927,2031.8276785499831,3475.750611776481,16436.712278653424,1680.1360617110438,1348.8799336030713,261.1491009982214,2219.448991409203,3416.3316466882056,16352.93636288406,1650.2477177324688,1362.7177518871338,254.37920120985473,2127.1496594044365,3469.6633090393193,16389.25031212174,1677.0370405508618,1361.2727110269193,263.0322258016145,2117.7703059549344,3165.026728962853,16500.286595666224,1679.886731703946,1358.3855559663973,253.06780827803655
2120.0,3408.0,16412.0,1748.0,1345.0,294.0,1961.2410283849301,3633.7624132202172,16501.250362713236,1755.7205408723098,1356.3880277774638,294.62945014948554,2216.68982088001,3557.9818017088114,16320.767733823772,1752.88717995263,1341.8836637236966,313.80539541359224,2340.7200790654147,3403.0913001718955,16336.323103959347,1753.9892307759565,1352.056603697157,289.7369907151871,2293.7319536670834,3417.0234619307644,16228.148952089385,1743.8741543042104,1352.5875226032404,285.1834505576578,2285.1277760919993,3365.8504780761327,16442.005500362025,1741.8505439459375,1353.923975387976,286.35870679978797,2051.6777282690446,3241.73891394819,16399.240326784515,1742.8099353122122,1373.547051695545,294.3622200512109,2033.1990125892053,3225.1417642565375,16387.199598784806,1740.4945691034045,1351.614396842716,292.8513704034098,2054.8932791472303,3382.4113726799787,16544.492838319675,1760.005270509307,1349.8035457423969,298.09178401526407,2207.579474245928,3570.8332743575575,16534.29224448637,1750.4993131409856,1351.2162477021247,293.1681914548909,2206.899266160586,3302.45738968606,16472.39785468854,1732.9090907917002,1336.8036665086963,287.9190750996509,2214.403643010973,3431.8346087159293,16522.382166938503,1748.5130564195244,1351.967567909205,299.1819132846364
2120.0,3388.0,16428.0,1847.0,1390.0,267.0,2103.561509490974,3212.973788771993,16475.32275432475,1845.9733609655248,1405.8256087341044,261.28392939887084,2099.6381085659336,3399.122237674742,16443.439129297207,1858.7061187987545,1395.806974427667,280.52972668267165,2187.8579268093126,3466.0066628732675,16329.664823521876,1850.4081383976797,1390.9374921746942,268.0274583264729,1988.2638027368064,3396.1276751401397,16448.4657172045,1839.0709679754411,1399.5990235831616,262.3419963590978,2118.738293812023,3316.3155810611474,16582.97762734832,1849.3983749853892,1397.0532165705413,269.4283387004921,1951.8904454198828,3224.1610464107953,16397.72788945084,1847.272236330128,1377.9448118788284,278.56008746263694,2171.9480359496624,3633.2126168430027,16520.810462767273,1844.2941992017052,1390.308290765424,289.4143014369494,1943.6988490848848,3398.6507641667818,16208.617141709427,1837.6532542767118,1403.8508038772688,272.3595515826596,2143.323716049914,3298.355784331551,16275.920054542785,1856.8573004078514,1391.6628781263535,271.73862609736,2316.234946078104,3293.259240424146,16337.064020657386,1857.8046810691083,1401.386802947364,280.00775372246363,2211.6525643358664,3400.365144026361,16365.7085336697,1849.6626792946468,1390.045693703388,268.56721521483286
2088.0,3440.0,16332.0,1777.0,1375.0,267.0,2275.290598842755,3570.322200154501,16443.494010446568,1767.9056775943354,1368.8752865618062,264.1164720506025,2103.4895291554685,3346.859093046581,16232.197196554092,1773.6831068098527,1373.0499352031761,261.15641749633187,2162.6344538031576,3352.0355488004648,16223.842969319516,1763.710174300479,1366.174870120383,252.9686580350703,2295.3169350291314,3509.3767154906777,16323.315676506327,1775.4857954543936,1374.0020317085205,262.67605347008924,2041.2977991812445,3461.6734946737242,16531.706211159675,1782.9758343471758,1365.2160219885368,282.34223064808447,2013.0908097926422,3528.008709907112,16374.413197072705,1781.5625613432378,1349.3259043902922,260.63239333823935,2087.905523946637,3477.9957784397866,16206.745088253609,1781.794552526788,1382.683263639643,262.8523300350787,2131.513521179868,3402.5093853124104,16171.094190892334,1766.3949814169914,1371.6086479446872,270.3005098395093,2121.9968246327103,3611.020689925359,16109.143731460481,1771.398777430237,1363.5780130659477,279.31793646713396,2242.5996824761473,3623.471941954752,16232.914427974365,1768.3245242460578,1392.445757546547,269.56895634092473,2145.9793177010624,3398.4689506857485,16204.483263936316,1786.7901627295469,1370.3563953311404,268.1927475235225
2088.0,3404.0,16396.0,1721.0,1385.0,290.0,1939.3159576293,3338.113160444189,16374.892443953282,1737.04172041059,1397.630121784049,304.02556320230275,2041.1946785325067,3432.807538980427,16447.59277545126,1701.226916929343,1394.1458791173286,290.0099464863125,1946.180868406062,3647.7906977373814,16349.407362049527,1718.7273728442829,1382.693449692708,292.7694452225638,2166.8501509678085,3423.3820295780874,16397.6508449268,1720.7915815388603,1385.8734211878962,279.93426547923207,2062.9656386393494,3329.0291176323694,16467.357473567914,1730.2717979792785,1376.2810795016442,272.5710707822031,1982.4911301701227,3364.460443044958,16381.015055023758,1707.800823758655,1378.8016376216679,286.74291573622327,2231.171463829317,3282.9399273810254,16296.544487435716,1730.6594788928903,1389.014665304132,276.6654997062163,2149.770541924622,3334.1769149016086,16347.110772467166,1737.5214270712017,1366.9626994311557,294.89694437992694,2197.757972846122,3482.6657975143385,16479.681802481544,1739.693353862973,1397.2038528687128,287.7713470814185,2183.5648307965125,3380.889325009741,16269.870799387263,1711.3920900918106,1384.618399635948,269.7022145249253,1983.1478513119282,3281.3837010586326,16230.590552855752,1737.4649781592564,1398.5361086605958,294.3785612831226
2116.0,3368.0,16428.0,1747.0,1390.0,294.0,2196.5684349823264,3389.5668907548884,16427.401418621615,1756.4157178287353,1403.171491420148,294.49398661877194,2205.3042202501915,3249.407532566109,16317.69169572712,1753.5879835907044,1397.3933279166056,301.16253348983133,1867.3565910265254,3493.891510414912,16446.208989485003,1742.1462192666668,1391.0211026129195,317.20708102850176,2031.107814872099,3544.5571144206674,16484.774470149718,1750.5047997470963,1384.7312483485398,279.7508737381801,2017.6051846203493,3291.6375018488857,16445.678083061437,1740.6613558967726,1388.4433215541014,290.7522261855845,2235.0450228868967,3314.8503626696825,16493.34144866551,1730.7686975281192,1398.687756676944,288.72697526404335,2159.2498044951535,3479.7153743550193,16403.21273415047,1758.370220841095,1373.6058383778552,315.0456877110687,2221.6145322505104,3438.0410824263113,16567.431308949366,1738.5690741102712,1393.6101894462322,291.3614641185957,2093.1882786751366,3633.5659660314373,16435.043045062437,1752.341483533474,1382.5514405413348,286.9523455963347,2076.7996032449823,3559.593059297092,16304.074988170782,1749.3024862616612,1403.955051830047,290.28650578121517,2189.7987110872787,3120.783928538211,16431.21339187096,1746.2941157349328,1358.4159044116102,300.30936864915554
2140.0,3440.0,16364.0,1811.0,1360.0,303.0,2159.5233681774057,3404.5984562601548,16346.911562290199,1813.0422234351815,1355.7367621779902,287.2272073113319,2018.585728735943,3538.0144051823368,16306.39421851006,1802.9467616573102,1382.863017967884,307.6837696557787,2038.4392034338075,3456.3554802778754,16453.67255201498,1815.9717728279495,1370.2607522574012,316.2613424367163,1927.5086328935652,3345.774087070684,16358.027927540807,1814.8350991801317,1371.9721098443022,304.60083593192877,2143.6386198521573,3429.576399967678,16343.905812248431,1812.010764561153,1362.853446797443,295.9728325173902,2237.151837329559,3355.68711549374,16483.00177962113,1805.9379213414263,1368.3592383312998,295.97482345163615,2005.5988585885666,3446.244350256837,16303.874883935849,1802.155020709748,1368.5829233543063,291.4077628691804,2198.829033742935,3339.2007446446682,16318.088717894025,1813.8764939250325,1346.500232039695,299.3352191652122,2149.686347319577,3436.598423183444,16316.120189717281,1825.718607099085,1352.8213793242523,302.5759631545016,2217.3494066018984,3424.20292353558,16345.95469064474,1808.7314212807296,1376.5466742091091,314.90926457233314,2111.6720362829005,3177.582294764462,16208.537427634594,1796.7003101197636,1360.0375614689945,316.4220480807824
2156.0,3432.0,16392.0,1772.0,1361.0,308.0,2155.53368277772,3321.5388464065004,16393.31547740653,1761.70396008838,1365.0998322261305,301.8342445880418,2319.7158634343264,3379.997364949453,16348.811335100423,1774.5406498292496,1355.8778627262016,298.2008749955466,2100.76345605878,3359.7572574204987,16175.06242151856,1758.4885234108792,1372.5037726208948,321.62665582998545,2135.5448613849785,3172.358011435782,16234.591678772114,1791.231350274877,1337.9289318969497,297.3986955970318,2124.81023352463,3502.1788225227106,16436.072745246533,1784.668620976002,1347.2358994822227,303.29367206701164,2145.263813320244,3565.6500435619423,16281.548389064805,1773.821284976237,1362.3641634276821,305.10170976551575,2209.9628463498884,3338.120814507887,16342.451516348867,1776.023150800231,1362.4580830551172,313.90017453012837,2242.7503247806385,3293.273527332886,16202.520822094142,1772.7131759340703,1359.46837862454,311.72651477411017,2195.100657064426,3358.398375848215,16324.76914698713,1785.4360851824204,1354.3214153017243,297.5460611890878,2170.8872957929557,3536.188349166833,16469.711204903135,1782.2019698725176,1363.7442036476239,321.8755025023953,2062.2817957881157,3415.574744791525,16374.561369442925,1759.89929615359,1364.2744006773937,309.91326101983583
2100.0,3412.0,16368.0,1743.0,1343.0,292.0,2099.201420357277,3404.8977779367547,16478.056962597853,1745.7765383634937,1340.211482320037,278.4749090200067,2086.5051558526557,3527.34100890899,16381.927183303002,1748.2992403403987,1336.3459724270679,280.1241045993589,2107.1089950059904,3413.3521661348836,16278.125655693982,1747.725055917422,1326.4431790135975,287.63329635070676,2116.1277293769926,3272.9146736374882,16347.840374201165,1740.7409527398754,1342.1730548503629,265.5858239344757,2249.9004451369315,3361.1233221155335,16404.63428674622,1750.9517508630815,1331.868701364037,293.9658246322365,2101.669048289406,3407.4804559056643,16407.845001895497,1749.2882355075633,1342.7767925084036,279.30972373217804,2087.59604010892,3382.931174612689,16290.371220160907,1740.7860965638718,1362.661667132994,288.2818179711573,2054.3505679606924,3508.126638059028,16485.149551215494,1739.2005964556222,1345.1227128211972,298.70566993726675,2079.359978426034,3273.3254415031793,16344.848821415822,1737.1912823752887,1333.067924402815,298.4370989769654,2041.6231199128551,3593.5644093498768,16354.214383668455,1725.4299742647122,1328.4718705849052,317.8736249752338,2203.829817795495,3608.2958880852234,16530.866243607943,1747.4181727182056,1342.4130973841432,291.8643549581944
2092.0,3420.0,16348.0,1741.0,1366.0,278.0,2131.4692932259595,3454.7467236153357,16309.547736911209,1749.68240326755,1362.7822786342717,268.97939092190126,2181.2582546977765,3481.0790920250483,16367.705975038325,1747.6572777891367,1385.8602679118874,282.6449756248281,1892.2232643696234,3492.546797893524,16340.643975451245,1747.8170313606252,1365.5200022761685,272.0844100348559,2211.0673815980285,3490.5402234000744,16281.927290300506,1745.3325561766526,1366.5635647228992,266.43473944947345,2058.9492921201463,3624.5580536881207,16357.394658271603,1728.563258146164,1375.8611808752605,270.4487988049127,2030.434858316298,3397.279289928126,16350.449366848079,1757.7982191338638,1355.888705974306,283.9484909884005,2026.4731335404383,3543.2105257036874,16492.010432789175,1747.354100374687,1368.0321886064148,276.5687262485378,2136.376489098671,3398.296011243323,16263.375063697513,1744.3522452121163,1339.8721548730173,270.25077180451916,2216.4664729211963,3458.0194958640695,16287.054904812556,1729.3573672687976,1370.3060360244026,277.59907010494476,2072.016351043216,3446.3207326366974,16259.398684478385,1736.976986489307,1373.5513191789107,268.49778857242654,1886.8035199837288,3421.1943993593954,16255.700319117484,1743.1931389901085,1369.95494869771,294.6643569814216
2048.0,3408.0,16396.0,1738.0,1390.0,300.0,2037.477941880992,3425.7601053359444,16408.075957542093,1743.4571289578134,1385.1648356453327,304.51599268853573,1914.8998974500519,3282.864239390881,16324.050977772496,1716.800916082965,1396.531822689281,283.9657294398881,1905.5255154005806,3331.2049892067275,16128.236971188113,1727.3246692634314,1388.8838220416817,314.2634393050208,2175.014533939825,3253.4067493550906,16447.09204737943,1760.6030423827144,1393.8536535633712,300.86488753896754,2172.4118470459775,3486.1068667548943,16424.44958353899,1725.5662957407142,1405.7673018731844,310.8676362492106,1868.6568012678433,3460.100315403703,16556.06771642816,1713.2999431254882,1389.4807688111596,309.23908530980225,1991.9680543158743,3515.6799435346106,16373.763939282835,1747.1751072539491,1385.368039345838,290.0791310193496,2006.019827704344,3539.578535956934,16409.41280971117,1754.680586190671,1374.7706425738413,316.1069817019709,1951.9117176421828,3556.092085912607,16452.252713629783,1735.617965247059,1395.8143282892445,294.83088131194836,2086.107324342239,3219.9279245682324,16381.814341250203,1732.1806148121009,1379.5659470920418,305.75560214912,2106.2584825770223,3361.874640802943,16327.054030411218,1730.3120980039826,1388.0275420728724,310.0817563853109
2140.0,3396.0,16352.0,1693.0,1356.0,276.0,2107.605558464571,3477.1798549748955,16265.604821232497,1708.583534283122,1371.918236936466,276.42749801941244,2215.1700601601983,3201.1475736236166,16264.241800667813,1690.1262460505332,1330.8098698244503,265.10275593877356,2049.537764599007,3415.7709986486398,16441.54931355418,1690.0103536718013,1355.2852725821856,265.6602460022074,2222.560523781467,3404.1440305088313,16400.36982355774,1692.3254638184114,1358.356134963862,298.60529748641056,2162.8226359706055,3227.126851112423,16352.435774815927,1704.5731310365034,1347.5612526513357,293.92784906929046,2118.412896557459,3285.2159961293037,16261.48160640561,1711.5693926777699,1367.9105530732488,274.98451816657337,2266.320367362299,3555.9485273319383,16340.393108905795,1701.2202796496458,1342.8932939848578,276.16742727680906,2370.9716063890687,3321.2272468813935,16393.80692311912,1693.488993853737,1369.9962264698445,270.99515110486806,2279.554345703479,3391.4264610120804,16451.00473347755,1688.7961156824429,1365.1310021510938,299.6934615010457,2166.424249837487,3403.329338023816,16366.772340473592,1696.6779157406784,1339.5905720764058,264.5833476405959,2226.0977685231046,3431.560928211424,16263.469749991646,1686.1492703934762,1359.9461633982698,279.566113000387
2084.0,3416.0,16352.0,1753.0,1377.0,281.0,2079.131483615616,3433.2146851567504,16480.453020263594,1731.599985021331,1394.6215727378246,290.5296707349549,2183.148388090929,3402.828989489656,16285.910672053233,1742.3736028723843,1382.5379533154364,305.83877818326636,2218.7925184735946,3402.0778872784454,16415.55556112258,1748.2205807548737,1392.6273925390199,280.3638785482735,2146.265235863402,3387.249195744055,16415.838567110775,1758.309431905548,1379.934427562291,280.1038180841855,2100.769489455691,3494.165398890563,16289.54761720391,1754.6514785830884,1362.2812492850976,271.03895263617864,2074.9878589203927,3328.9916950566435,16283.47650547625,1738.6592663793488,1376.5481940358789,286.63952903339,2091.0447859115434,3403.844627478703,16110.972771267641,1741.8953823630352,1353.0787437626661,283.1963036404949,2227.90319343972,3506.6691708228377,16233.556072067415,1739.9953284597093,1387.886887447614,275.87690022717436,2139.21353287139,3148.1493124992194,16356.12130030048,1763.398089366196,1390.3032904314082,271.2427821463353,2197.7109468960325,3328.3479249801753,16335.434880942596,1749.6312125197633,1367.6857147184944,261.18020432899016,2169.4186394316407,3398.489236464236,16278.41305456604,1764.0209892804032,1378.498505076934,267.09419494876636
2064.0,3500.0,16368.0,1783.0,1362.0,274.0,2044.4865898799196,3343.2845381345032,16396.950152638503,1782.5013039778726,1380.086977394859,285.46009122580745,1959.361923749347,3492.4314690983683,16546.05488995035,1785.6223122437577,1361.616998767283,278.2330707915288,2123.178598020168,3402.0457494275224,16340.858417921794,1782.1508772904356,1355.5943709377646,277.52854214652285,2141.18681108193,3533.3484798178874,16507.889493242295,1779.6806619081979,1362.2320313654507,271.4867819683795,2002.7864328913574,3366.6103158344495,16367.524473922238,1772.5673320579263,1346.7875876747273,284.3884769793959,2010.0410731367517,3482.561527522779,16304.04838668353,1771.955202656163,1356.4533994074434,264.7768383856793,2338.45826116089,3622.625146717803,16375.606357405451,1777.8393556242243,1362.3044726294252,265.74120120232845,2056.718976484833,3408.351235988389,16444.068851021006,1782.9140805506079,1363.9950026571478,277.1642487424005,2024.7516643805784,3620.01102620448,16281.21371775726,1790.2997509930594,1361.6921612805756,280.7077352483506,2155.523320104174,3647.8916228230564,16520.316654168706,1805.139673234943,1360.6488535341168,264.12910934257394,2047.4294966947148,3534.3941612471726,16418.872973482627,1775.621421695717,1352.8551867264066,274.19795789809604
2092.0,3360.0,16444.0,1720.0,1353.0,289.0,2092.058955989493,3394.1247536731366,16275.05333344238,1729.8976188443467,1326.0678926567025,304.8971444180365,2167.599451220234,3278.4543120572457,16440.636383419787,1717.4744131724337,1358.3535947683429,296.9159119641945,2081.1277466723686,3360.861080957009,16367.846992260123,1707.4645266587997,1349.7872670180955,276.8811883949893,2013.0583690290587,3417.222883533645,16410.456573706677,1743.3264246098756,1346.2802103673698,281.92653655694346,2165.0204651465365,3236.8879709566872,16395.15404723217,1720.919876034428,1333.4951252758963,301.7784373648704,1954.6849703490516,3242.894447232382,16317.025661343358,1728.1565767871016,1384.0814771159532,282.5850983998516,2152.8907757436896,3219.0701349852325,16458.314456691533,1728.4321043170933,1336.138224867185,270.74301899225367,2040.6379668059033,3371.791954996634,16648.59054272864,1710.845426772486,1349.1773879227385,298.2044780626383,2284.837080858946,3218.728983155645,16301.98670956449,1724.3865932617741,1351.8902557161607,284.6326518338434,2056.93688201603,3433.922248801326,16596.897225747405,1718.4296491982298,1336.118998648881,296.26398487946665,2265.480388553592,3532.9300858724623,16496.84940919852,1705.7681800407186,1341.770941098381,276.3636011492533
2104.0,3404.0,16484.0,1742.0,1332.0,326.0,2175.6869827304536,3496.131412498531,16377.775818247837,1744.6109283304916,1337.3504783239123,330.605854316459,2107.506441768765,3688.550394022824,16414.679168317838,1740.5233664102586,1332.6137665186243,322.73053163265735,2149.4107343238948,3262.4894157612325,16390.295153659892,1736.2353486363031,1331.4302026692112,313.2173570718507,2155.5397287879796,3441.5226288479043,16563.557307644165,1735.749972434834,1332.247792426905,307.9284833468522,2052.858931341885,3357.9199105941075,16621.471032290072,1742.387028112776,1344.1869500030734,314.91971225808317,2036.937444039428,3530.996723194072,16410.004263124443,1748.0109659688917,1312.16054816204,335.3186468467075,2230.7407707594793,3385.2386245181306,16536.00585432392,1730.6296766984647,1332.5009622653179,313.95232179044814,2078.1039065553764,3338.818209319304,16521.620847207647,1751.7605204219153,1350.9110059890797,334.1590240926242,2343.3909476048793,3460.7014197035696,16555.274944072487,1741.995660097358,1342.9983545511245,323.75311874634764,2128.582103655059,3234.021143965103,16344.656065185765,1741.4008226946996,1338.498676232941,299.8382514020245,2060.721445302871,3342.631642976208,16339.360175235784,1744.3857285841536,1335.4662063253895,319.42838499576334
2144.0,3416.0,16372.0,1805.0,1351.0,281.0,2260.3721452461905,3407.8766987690647,16360.162185513103,1799.6305676036852,1360.493797176968,269.5109978974824,2161.803682546896,3354.9681870104755,16480.539476138027,1800.8180861764433,1361.7680051107284,278.7837443752279,2262.640268888719,3375.513627148274,16419.730521622205,1795.8389032778937,1369.8742275834481,297.3236266171687,2177.4873529344395,3420.8240909823608,16443.463127054645,1815.9242788837812,1349.0671323084891,284.16509342716944,1835.5406686357244,3442.855800394338,16434.39166909817,1800.0632551954934,1356.9713573419638,282.0878273879239,2004.008780407681,3287.532270029771,16469.750100118614,1807.101083597296,1365.083803997603,276.92848760006956,2158.709790274292,3616.039366646602,16400.890198949946,1793.9716559943297,1353.0656958183015,283.78323182982444,2168.302201280062,3399.742312763196,16482.15369530201,1806.2642981128367,1366.5857747483672,275.6844282378259,2177.5370571277417,3377.279935263771,16259.5902322377,1815.7367349925282,1365.3206794578662,282.7808873703801,2122.461463654851,3216.7795350920137,16358.857454394423,1802.3905571398261,1357.955185279151,287.4755464862507,2150.872744186942,3565.580045316778,16480.623627458113,1804.620439441142,1344.989193035207,282.2433776302922
2120.0,3472.0,16448.0,1777.0,1370.0,276.0,2083.542380193074,3441.420770946068,16700.021068021953,1767.8465022185192,1381.558098876232,272.05668247048936,2016.256766775589,3354.6214868570496,16410.973239386054,1766.5084718936628,1350.0744183775557,279.8918475670543,2116.155399602571,3494.181260731725,16540.158521070793,1748.3104917885576,1367.5139529827109,271.617673240986,2320.805494933399,3368.291877869519,16479.72737861292,1782.1433041592177,1363.3854833774026,268.713937486126,2163.5974112274507,3421.960696379347,16455.62278339565,1777.7193990915177,1374.1127220789765,277.28149230820895,2056.871320499298,3536.0413704322295,16349.505468258474,1780.7051534793193,1359.391175465944,288.1341345840858,2081.455369536344,3596.5855392428766,16384.32461376441,1761.2457382019657,1363.711330178077,276.4156277726293,2119.049069649113,3508.640158514175,16427.980576926075,1800.2305122118498,1379.0364624892254,273.93878457551784,2185.2367694759855,3491.5664376779637,16329.915027424577,1798.2109178397175,1380.6342925364763,262.83252433304176,1999.3645377316316,3459.182051449532,16481.536651842118,1776.9041474805495,1345.558382310328,275.5589722681717,2235.30427928583,3322.7231550122597,16532.133637580297,1773.986588909148,1375.544054909429,292.00151566743557
2080.0,2912.0,16344.0,1775.0,1338.0,223.0,2253.2705104377956,2901.255420263046,16368.58282501829,1758.7687083381031,1342.9646745166356,233.01147489800599,2116.4257988605336,3125.751305428466,16447.23823214771,1756.0661987852716,1328.7933914417615,232.75325466622607,2118.381172336333,2693.85948387993,16454.192641584144,1771.6062031573094,1325.8428033616237,214.76689017503256,1896.1077523486383,3020.4220204349954,16468.10961258666,1757.0648592205798,1347.970265191155,201.76052737786753,1902.484316206029,2965.33660698348,16193.662381653186,1790.9426894677454,1326.841234764461,222.67485789209715,1970.0974672043985,2912.707377314829,16449.58220328797,1764.5457485626753,1333.6503701745005,213.41942581492188,1982.73745802908,2904.506724190667,16441.170919739012,1768.414420320349,1328.519771829397,198.4342597947558,2010.967949228617,2835.4426915446434,16360.267518745328,1798.1991081350543,1344.5577548124995,219.4017533641412,2110.5341753401076,2973.5646260325434,16519.666169802018,1761.7633735836632,1330.1776680138155,208.8807119095463,1979.454944450654,2863.8759484104453,16475.952118010693,1815.536078875192,1339.2345206228026,217.79179372972808,2016.9862490359612,2755.958352194393,16320.50631424535,1755.3747582923318,1360.4317967774532,224.21308157455013
2076.0,3444.0,16216.0,1719.0,1411.0,182.0,1886.4927533292912,3377.3768810340093,16379.243460793252,1732.7529398090235,1413.1353213370849,180.10734978288352,2159.359764040811,3286.6366217399936,16193.267738203553,1711.7152386690711,1427.2048454903506,186.27305233299174,1957.6207057444708,3371.9940024137613,16108.519020128868,1720.7859022621876,1441.278936756663,169.0175193978203,2033.8428093210166,3492.187958408021,16291.43232659352,1715.4247878813333,1403.6423345755943,183.08696335608158,2148.953791001146,3400.1692743768926,16084.68176142705,1714.008378390084,1414.3308317528508,193.48058156010973,2176.781530659325,3457.969566081678,16229.815262792848,1724.5189918465633,1412.6912734845266,181.1730765458547,2093.7627026358055,3435.4213581309627,16173.537094988347,1728.5891802472504,1416.635577674483,193.3199366685027,1924.4561095051768,3513.625846877563,16258.549231626488,1733.646077617069,1402.2780571731523,183.9036987247892,2115.577374851261,3372.1777199921526,15989.089109839093,1734.2005341338493,1421.8508952542857,173.45057052191686,2177.7190218081464,3646.0277774237993,16255.16802656646,1718.5619128154026,1421.7463296516585,182.83662159397042,2060.473482211299,3499.904457639485,16281.940910025642,1711.5625938128678,1422.1478986129525,185.7268613017988
2444.0,3140.0,16564.0,1749.0,1358.0,293.0,2418.8836337883645,3131.345373494475,16609.512154318025,1763.5631969226251,1367.909736643086,299.15920796596276,2457.4539146878883,3125.6881251866657,16536.17348459195,1743.2016416040524,1350.53550793391,285.06378749826416,2381.2315792370136,3258.5461056047197,16479.953876788873,1734.71750577612,1346.5022673477652,299.62946791000905,2435.399408072657,3184.578256434396,16478.425758952588,1750.8291368963453,1364.3252805343989,284.8744262484497,2433.9553268461177,3095.6787567376473,16649.536731505388,1762.8086071609584,1348.9575035861633,290.41848472871317,2574.5858671096485,3201.627197586982,16739.594195061865,1743.9630429623842,1382.151920341557,295.90242890484694,2356.5015036854,3164.505349590522,16397.049756562254,1760.3515651482028,1353.777855435831,292.27257032852003,2441.1355005649853,3168.5709324610098,16345.082679124942,1751.7544269598295,1342.354185984757,297.0310469730566,2487.852104982745,3166.569334922749,16578.453739461216,1761.6809233886843,1353.5724842374157,294.73172970848685,2381.078178498583,3117.9296870578373,16599.135866808036,1755.2026593021253,1372.0218321667896,293.16201022497927,2584.197900354588,3279.7145776803072,16838.020300064305,1763.638162633548,1351.6373861075351,292.04950655151225
1976.0,3184.0,16192.0,1883.0,1340.0,279.0,2054.890250594645,3198.2975311494583,16132.31057298073,1866.442944257985,1347.9861810905543,278.63305392811037,2044.7613617403053,3233.688836679771,16253.825255471524,1879.7748861230932,1344.701666349236,283.032505582441,1785.877182004902,3045.1225858151392,16202.422609548297,1893.9671244900665,1342.2685926915665,279.8573568161948,2008.9410372058262,3331.1558598585007,16263.845935674692,1870.8883226115238,1341.8004037276721,296.65882582590854,1897.0316787540626,3137.518482349779,16283.660373358753,1877.3719229735134,1347.9123705910024,283.6436836817546,1976.6462445898806,3239.438380722537,16304.149284748843,1887.3153215243858,1343.2968903017888,292.6357166194737,1763.1203170544836,3309.3877190927615,16102.230387765927,1885.704206066576,1345.2426468326466,278.34443525654916,1710.939879495879,3274.431793014113,16124.637195272313,1875.6279247338332,1347.5627978495597,273.72796779814576,2017.5710740025886,3337.2402653529102,16408.62908575717,1875.4573440317988,1342.355064617515,275.6391745688247,1996.2511007027817,3282.508485880552,15989.452318852693,1877.6652582727754,1324.811330258018,273.3416534522845,2122.0405966273647,3089.581007897826,15977.363571930724,1890.4022444806533,1339.6933567025837,280.61639667299187
2028.0,3428.0,16572.0,1831.0,1363.0,255.0,1882.7796145111708,3383.3286236524086,16637.795882812174,1836.8854771591332,1341.5099948630086,251.17704764420793,2003.8025605588289,3491.4117670000305,16491.335852256914,1824.9763571045628,1360.2293364560949,241.60370351810087,1944.8603025626155,3351.40683152398,16511.902824032306,1836.0777580438898,1359.5670396177836,231.58821995361205,2148.985622835766,3520.496379244502,16727.697451491727,1832.0593931262897,1362.2476827943162,251.85712486517002,1952.5558093397954,3600.5375070653336,16326.927273068692,1822.4624900946094,1361.6040907349866,247.47781270929218,1832.2260402983613,3410.4553938213735,16809.936588350487,1821.1723495222634,1380.6699847298112,255.4187980014965,2125.217932294713,3333.916634324291,16702.98789422168,1835.7141209564693,1353.2978526643103,249.72708148289445,2148.24763268134,3345.246425878508,16486.28652272051,1840.7274464218328,1343.734129320833,249.1780101622331,2269.8987824059245,3267.2979239002757,16435.501888506064,1828.0761726332419,1372.745836721069,246.30624261499625,2071.1047943811,3367.940283616325,16609.833463179577,1837.6747610088278,1355.2286951471403,235.81563463086877,1986.8778955848302,3477.890450044848,16643.940098510862,1825.7384367346444,1374.872067087524,234.55205850800763
2032.0,3440.0,16584.0,1761.0,1393.0,260.0,1870.6996486366086,3464.2889922960994,16658.398366658286,1774.4715677548265,1382.9535847829595,255.71784028588584,2043.1592346613322,3323.8710551051613,16602.099119885068,1764.7520311922128,1379.5927923195022,252.93381736340487,2030.1951944574148,3405.2828841370674,16625.823419234148,1764.664614371966,1403.3259829279727,250.27999322900018,2068.867529263526,3622.510285114692,16420.201786967464,1760.4683464870297,1401.0265277653125,254.52707578135735,2038.3913691831779,3496.0443584920463,16511.914257921875,1748.3992798224228,1409.5370587025534,256.9517968083314,1878.8930912991027,3301.000197248586,16527.83102606099,1765.3503363322613,1390.2226657728393,256.4665471378484,2045.4981754264597,3493.214574843033,16679.224182947975,1766.7231554490008,1407.9656897655088,248.62961625059785,2063.825248575009,3407.357463079326,16622.41718089438,1742.5979395559907,1387.5578118092058,244.29531323890953,1905.2873319179917,3509.723856129707,16481.49009873037,1758.0668493755518,1383.169457607184,259.44701242574644,1996.322663568097,3458.476669215758,16573.784650829202,1759.6188301054158,1391.361092800577,255.9550761485221,2005.5317832056664,3419.1058198232536,16582.87618242105,1774.8216023229709,1384.9082641821815,261.608333836629
2072.0,3440.0,16364.0,1707.0,1363.0,277.0,2191.3667240613213,3528.1887442212405,16414.54849137707,1717.2799676905138,1366.3707131172152,274.58674708797184,2151.103426194951,3579.7372085579027,16283.453212693346,1697.3826234760406,1359.2003574866105,276.2551949128301,1914.883776291284,3529.2585175320337,16263.075321548718,1714.4814580039279,1364.6726815799368,264.0063995247828,2071.0658735686616,3349.579723708889,16323.005547119124,1729.2747362527973,1355.4704326213366,265.0700147944604,2202.759484272805,3444.655085096376,16509.257188456882,1701.526787781612,1368.743443907933,280.15187041560534,2077.0692519971362,3517.0424764933687,16331.672705332812,1724.2074313183732,1362.4832146244496,279.68084777016685,2058.321308473553,3444.231823979824,16421.19263500201,1715.0719501149597,1354.7343243526175,283.29895980595,2150.2891118012667,3492.991537212658,16347.979237105905,1717.4435491151826,1364.0476965848845,283.8818397194606,1972.0967554379474,3400.8597383244196,16343.366365254025,1697.1926224100846,1362.3434364851437,291.0294873741492,2082.056232158111,3532.615125914063,16399.678815846863,1692.4482770006882,1368.0895404592125,282.68072251021937,2125.959254928331,3377.2707679929895,16195.861211164523,1707.875740722863,1353.234855737619,284.5258861271915
2068.0,3364.0,16300.0,1740.0,1399.0,307.0,2015.6666023330224,3417.1942443177304,16224.312237655944,1760.5205968100895,1417.354193941377,305.79030941601087,2089.4227881380193,3294.2674644491367,16034.68502340817,1735.4063488314455,1394.647035373009,302.55894738101284,2107.3338984807165,3256.0606338419193,16212.279786962717,1750.4698113895845,1390.0709847450619,318.07230159709496,2196.6221341166797,3114.9908815160684,16267.813342348143,1735.466078242707,1407.3753650551603,314.3756186987229,2249.0475173312525,3439.4169955784205,16412.142037730777,1750.340326149929,1388.0394063338476,300.2182777539647,2051.3145627854883,3262.051965123726,16108.013187399023,1745.848915632595,1391.0650384589717,306.57728750247566,2045.2000385261188,3243.094274967071,16362.308545829357,1729.2396515902005,1392.072134531496,303.22402166124056,1955.9179563076452,3353.949505021073,16401.2126329075,1746.872955850237,1391.4506194824119,323.4846222901245,2072.817788088159,3341.673251638616,16314.880523803604,1732.1816542461168,1407.5248230075272,300.91509261172155,2129.257594031843,3489.160546159008,16245.988199495585,1752.4125701277958,1399.7829109335603,311.74065913950454,2231.134668881764,3460.5810585749014,16314.38684643795,1729.2204361188997,1387.9882585285254,304.8021950292253
1928.0,3424.0,16436.0,1800.0,1370.0,278.0,1930.9595229874678,3315.2895919726043,16430.44280006212,1799.3239671479296,1365.75050481822,274.4450435272601,2077.7069625478184,3335.442648184901,16461.711969306147,1800.2203451414657,1375.6442629198466,275.53761189015523,1820.5656004968882,3394.078386798605,16473.371030494698,1792.0317721150025,1379.7893463521114,281.37394477659524,1778.9336057447445,3395.37808685253,16371.804713186953,1813.264006678875,1384.3251306503262,276.770380414213,1854.9423664115961,3428.6847225569195,16484.8811247835,1804.0038296988976,1363.191439891671,280.11848045880504,2047.0521587542412,3477.331840219689,16493.506115583597,1796.6694359910696,1365.1397716490992,286.2974803290795,2067.8210331548316,3327.7106926746933,16293.038738021098,1811.664478075368,1369.747129568202,256.65552647759245,1634.8814149475315,3436.0044888266902,16298.307520330845,1783.6989283276218,1384.1925153578109,267.64688014305597,1868.0897619818063,3412.35738183429,16455.43073792906,1796.495438504983,1371.1807455546043,272.23958885919774,1695.7184512505742,3384.360594295514,16293.948067620977,1798.871838465246,1360.2073267983044,284.82323464899605,1833.7714333907195,3515.547662273737,16565.558296202245,1797.6082339942416,1382.8201829294085,271.1933042493602
2068.0,3424.0,16380.0,1775.0,1376.0,284.0,1944.1620972002456,3447.4920791957525,16277.883782175733,1763.3703544820912,1373.229637874133,284.8721337057037,2026.6539911230902,3418.758552028135,16388.899250088765,1775.2899979512795,1369.3884045572906,300.3114078884557,1941.4808131161383,3273.5478631934857,16195.04080796104,1770.1294854931416,1375.083993175214,278.3424814439956,1932.250762166656,3378.8630319302065,16362.153181592423,1770.816785793039,1358.5232875909328,287.0121149320128,1997.3518829815096,3235.4770946454178,16433.51303552661,1759.879583024235,1356.832336329252,278.75501679463383,2130.1563326995183,3348.331412773135,16319.75881250078,1763.6628382216988,1372.5169252015428,290.88591515226216,2137.712262916553,3398.2693273813134,16305.907026126466,1775.4329387802036,1379.3599066754568,278.3793481485154,2087.309288180209,3173.0131257433422,16377.904554899927,1759.93148573512,1372.6244213471748,306.35366295076005,2165.197942531677,3488.2402443458336,16266.548090033573,1779.4218869623612,1377.1276934109567,277.354542628206,2086.864998353787,3452.1659800657326,16214.499218313103,1784.6921326589338,1375.3633190083594,281.8146929761213,2129.466056551172,3536.239401071881,16304.92917648418,1786.6177066920636,1376.5018878581361,292.98690824230135
2316.0,3064.0,15868.0,2807.0,1482.0,240.0,2430.945320146238,2980.601069932422,15820.756152643393,2796.8358854155977,1465.2297950734408,253.0230431112332,2233.9109546843147,3025.8327987532675,15830.88846070251,2813.8377834948296,1490.2851128989314,237.48114768170439,2338.6493244928593,3113.4607266730586,15977.496249945509,2804.5433789364606,1479.9698892862657,245.9702966478968,2409.8823076650324,3058.744598912056,15792.112708556979,2818.8383105219723,1481.5012504226368,250.70005664118958,2309.8077830434413,2962.9026312737233,15798.265206158123,2816.6421725720797,1480.9339298734637,235.64429067800873,2222.834630892872,3154.5903296631336,15878.1500721483,2807.079485203178,1450.2834606719014,231.4602879080936,2385.042805230059,3073.179523049661,15919.514973804336,2812.8718375860262,1472.6531549701551,248.5391835224798,2153.815075568551,3143.803183334565,15742.465893879482,2815.00616495594,1488.1381659006154,236.99028593583935,2294.9449932611847,3116.1567647952224,15763.727674251943,2802.656480205299,1477.4985286243104,235.31875904470294,2295.256471625739,3082.676181485584,15832.124687560276,2804.5743032362766,1486.5093875670623,237.84500485020376,2241.999840296919,3201.6895833403814,16005.872596589896,2814.7204206808774,1478.1702830910037,252.27036161303533
2196.0,3668.0,16084.0,1616.0,1386.0,287.0,2343.4542598922503,3693.613091253438,16319.740341255207,1607.3736298561164,1369.0577923096537,283.1719424625608,2247.748859240528,3701.903053459839,16108.196845249366,1616.0198913779416,1366.8769765547565,269.59888859531173,2105.8479904416745,3586.0941106413047,16079.472042176765,1626.4714005496603,1390.1644650276035,292.6601263979796,2162.4263055975002,3769.0294701514053,16050.739561702005,1595.1423131167219,1380.4738328231824,276.6136289421756,2226.532461096953,3589.3075015119603,16244.62622051096,1614.7771673098164,1381.1568030999447,294.48846630211824,2125.91289165403,3732.863991258141,16086.31745769663,1627.5775304382603,1376.4662658378015,270.0928968967462,2285.0527533261047,3755.0560690652014,16219.760251450294,1631.4232733366373,1375.5399490095158,295.1375935794829,2188.770518322235,3654.9090649112227,16164.054621870302,1611.5790737045686,1374.7841555983232,280.43411927021964,1994.3086474142315,3526.57016809996,16070.905025598346,1610.4113902942388,1379.1268544516124,296.0958412578687,2236.529641027172,3925.2119599971397,16182.13305168761,1589.034826614777,1379.3708561390451,278.2237373537372,2219.5927701096484,3750.520427711404,16305.256822685013,1631.416011289122,1382.0917125508818,282.1064413947928
2144.0,3532.0,16636.0,1517.0,1331.0,296.0,2205.412567358856,3601.7236580928775,16664.517053816806,1515.639788414948,1341.0647994134802,274.11026198417613,2151.861706624741,3679.050974765545,16737.361250624796,1531.0229106158758,1320.4072205252537,290.77082114390686,2140.817220692984,3509.808056014187,16674.968837814256,1511.4605483962673,1334.886858899622,303.96050323978386,2068.277951109266,3710.8036713519327,16664.504178641164,1508.688839727434,1341.6433118340167,299.3737354636857,2165.8813854147484,3733.604033819753,16788.404829610477,1525.0693584559801,1341.9036330346578,284.48852313277746,2188.78567225606,3417.380893892532,16583.41643949951,1507.3636617883415,1332.4364231467996,285.6131612502248,2042.0959998454514,3466.0126865032667,16518.196962249556,1525.0198393030682,1328.1894817969383,290.0369717308814,2217.1827248742647,3351.3509178080285,16509.079390302897,1515.3185623266127,1337.5831348984248,290.66947741451145,2006.6906860705865,3491.00764263315,16511.78253596949,1524.5092989886987,1299.0898055544817,284.28025895360713,2056.6125753515917,3581.651213117167,16457.07582468337,1512.9526564919838,1326.1247369975629,298.8425837920163,2121.5743461070438,3470.2471140245975,16619.480986290677,1517.4124736076217,1329.938601780317,297.94528888982575
2180.0,2952.0,16208.0,2975.0,1539.0,416.0,2439.641356939112,2883.633798359621,16220.48210561602,2970.3633533343436,1544.1978458404553,411.0662750706326,2341.738459316402,2968.381923822743,16219.543232156013,2996.799828624117,1539.6813041813841,419.8367345518163,2174.545395968352,2992.2119231873244,16164.367267953003,2988.171503067615,1532.4389892565534,419.27719210331946,2203.811477072026,3073.7784515258127,16103.752310620928,2985.057016500367,1541.1837620170681,422.05634953000833,2244.09060850373,2849.09855305812,16294.754544780826,2974.3695439476323,1535.8338773728062,411.9839226169347,2248.7136438788434,3009.6107378387364,16176.07201330456,2979.92247288728,1526.9947414056214,443.13324050011653,2268.9654535211207,2900.901383674865,16085.984284261789,2954.7845244283203,1547.6682135932951,422.6652442300314,2247.245920927097,2986.9617055730832,16152.8099696355,2966.396061098697,1525.5932255129765,434.67727334280596,2196.669081138102,2954.1003461159844,16088.560697849778,2973.069172976598,1523.4107827948342,410.4731833767016,2286.0504483514915,3146.944247195127,16379.69184733091,2959.7611519646193,1550.4005860773332,413.03182707154633,2277.5019702723866,2994.4455845701946,16228.675976267146,2968.321871094178,1541.2309630352397,429.06071244434
2016.0,3612.0,17644.0,3743.0,1383.0,263.0,2207.226383079942,3862.3810480353714,17643.602032878436,3762.6194211127854,1392.0542188166787,266.63918133351524,2062.5043303262637,3702.5052962352097,17637.499700405253,3735.3110669444545,1369.13855854354,236.04994387276957,1894.7778116107174,3606.6782277156203,17611.60740337573,3735.20968411976,1393.6636601418863,269.8388600419767,1974.541602830958,3377.676481824258,17727.31612663517,3748.3689950916564,1392.3144214988445,255.32511394975552,1987.0601246373092,3719.789770064244,17732.996164135155,3764.2354883907374,1377.0111614470243,242.45599447824355,1833.49358382821,3798.9714833866065,17610.91011113713,3748.6783603805743,1395.7342229585745,256.58585681297126,1973.262819279163,3544.0854613076513,17732.040946465593,3747.812742051143,1372.546972899185,266.49987695315053,2084.044185019825,3665.7003798371866,17497.58400961006,3750.7534604687635,1377.5770293372323,259.14607188769946,1855.37799545891,3652.0210174053664,17756.56954246901,3742.8017073406213,1385.1842242278728,257.2911073226206,2020.5071781904167,3887.9775602901914,17585.421313984887,3736.8963574499576,1378.0562802406212,264.58582082962556,2149.864431681483,3549.402227574749,17469.393367985733,3736.414600879873,1380.1084219703166,260.81287995485314
2036.0,3716.0,16348.0,2766.0,1372.0,279.0,2149.209380830901,3784.367573174183,16299.227137476473,2757.070741597779,1377.8895737542182,283.9903151995226,1975.0687614080828,3691.888029952021,16464.49752623701,2771.009497348479,1363.7599470658483,270.17696890243917,1798.0014128004298,3664.026467354214,16212.910131666935,2747.4996648568363,1382.191164274937,286.30437202203507,2143.0469794010032,3686.9085968259105,16307.411070863458,2753.3685248618795,1359.596434779555,266.81071750714983,2054.887877785229,3801.971204746628,16134.118013211728,2760.6561628422987,1359.9582482219944,277.8780835465534,2102.6697709621844,3751.435172068859,16275.674653685903,2770.9129832242675,1370.1806354038063,272.9272792309375,2097.1979100667036,3627.166344842632,16370.482200481783,2753.8312936095695,1371.3865803828776,283.5052959790589,1908.8303557318338,3804.1032866715123,16414.432571921698,2750.174523249035,1369.8965526229522,281.5053448155953,2246.334537700557,3585.7799670293057,16188.452537262952,2753.5336585805494,1360.42456436705,281.9535635528972,2016.1695036018991,3549.454239961606,16320.643395436009,2766.5874456821707,1382.6218730774508,270.505266852118,2013.4593458822126,3601.770041925379,16386.237509435618,2767.8515238689283,1379.7479758848124,279.6837697563939
2012.0,3820.0,16716.0,-262.0,1415.0,269.0,1844.8206639384507,3827.636685412273,16649.16900250595,-260.5649657421255,1414.18511257918,257.50045825992356,2137.957912275327,3689.043986214253,16718.89491381541,-261.0147736236411,1421.5414339859765,270.0682506452117,2076.776314172303,3835.849530117993,16642.16611025671,-242.12896473529906,1411.346006092768,281.4507485165017,1979.6926381375304,3828.789339248725,16787.052533888764,-266.4898978006331,1429.1402937268388,268.003810858785,1984.992613105746,3877.793064857881,16717.91938231443,-254.73990315438414,1407.5945287690936,269.23074244125553,2039.8247833809853,3712.708778916983,16891.692362963313,-274.05428200742335,1417.400878927796,264.5350268762779,1934.1186871305993,3940.8428855543416,16703.99392076249,-264.76348046056154,1409.4570711922436,285.14931278551194,1859.977639902368,3831.891434342594,16622.404334683128,-273.5748253564663,1408.9778361200918,261.3735460827597,2195.083323089289,3854.166362193011,16620.763203951363,-264.6183535216285,1394.8228774792299,258.99379745458856,1948.557086646229,3849.619433007552,16788.632405837423,-283.6636980896508,1414.1989769446513,281.56631483165995,1871.7648074997685,3930.340695504235,16623.67755295443,-261.0912414029409,1428.6365922115667,282.9379267304548
2068.0,3432.0,16376.0,1717.0,1379.0,224.0,2079.4917463263782,3431.151260644738,16240.021186096617,1717.6990381503138,1370.0755451917742,242.91926265659117,1843.7775521370193,3226.4497676404167,16300.04023283879,1699.086495530355,1381.4368667156534,228.8585193690308,2145.9988624954126,3428.180943735903,16292.651709447606,1714.5476604589805,1385.0474416233635,201.74582284771148,2166.194833826885,3448.8875247133906,16374.119728127162,1729.5490970336514,1374.0549286271187,227.44307055857837,2094.0376886661165,3461.1932800272066,16406.162612626224,1717.8992039908003,1393.132250036685,217.97696897106565,2182.47873953972,3430.9337187826036,16455.898976550096,1717.8874138334893,1374.6164817599947,223.78823074147485,2066.801076271403,3484.8404653399984,16447.610600167303,1724.5583889615427,1386.4355249545185,222.7260989789783,2102.8581742637025,3499.7438180143113,16285.603636080683,1712.9110471676186,1389.8435907013625,237.7730146209816,2020.7514360914433,3440.978909262362,16375.402922326279,1732.4376374645922,1378.9724404261124,213.08890555710101,2216.7440411637026,3534.624159703806,16277.267528617083,1715.2487393873964,1370.8233537480708,219.9592145991482,1855.9395230149062,3496.804437499243,16293.31888403083,1712.7805451237396,1383.061296262798,206.942202834631
2064.0,3580.0,16392.0,1583.0,1381.0,293.0,2100.01822839835,3652.1597824411383,16301.05894438128,1568.6203324338635,1383.02098268778,287.948345395296,1981.7643259529502,3608.0022150940963,16235.964190712179,1585.4870378512633,1392.6279935586388,282.5556672132096,1987.990880615688,3556.149614802973,16391.48694851069,1583.4769895620202,1366.6653873018133,283.370506752923,2057.7217297125567,3409.8569627115576,16356.293394794999,1586.5507076145566,1374.4997047641975,273.8427469756988,2084.884399647386,3565.456929068959,16354.808108584086,1581.7882414684195,1374.0356173881153,290.9802278065859,2090.752284690356,3387.2604516824613,16443.354179290258,1587.9707513251285,1373.9154918935094,295.33845485664153,1974.329720200124,3716.9846383881054,16348.500655330996,1587.4551365577995,1373.9413476394016,305.804270013081,2177.329884252651,3589.192614487704,16443.727763057526,1582.1600116460102,1378.846031625618,295.3741072190528,2075.801956745164,3511.1555014261853,16467.999970230212,1591.7546826787761,1377.2449096654561,291.154429096535,2216.358599562937,3552.3623979578033,16220.284546750416,1585.535279540258,1388.9340104316493,300.0394274018429,2054.5040736090227,3563.765233092035,16308.89672458111,1567.1225110933733,1381.4262578678815,301.2629749292315
2060.0,3400.0,16396.0,1824.0,1357.0,296.0,1942.6807153134346,3303.943991229782,16349.207249298417,1839.8290254229905,1364.1866219189726,308.0852637550044,2240.4505547395197,3191.2846305170096,16481.600726620385,1828.3040217834648,1338.0264636708082,305.0642436854231,2195.0315006644537,3633.800483489723,16196.618878694893,1825.5025677535716,1341.6764732524643,280.34609561043385,2029.0725501208574,3461.287367646447,16275.424651781992,1814.1082710690393,1358.5060509494458,299.1532096973938,2059.3886663324524,3240.6725589922758,16512.75389406631,1819.4470637879992,1346.6001320316032,300.9662930700705,2170.1428729484155,3507.23771117923,16402.192446285906,1825.156429574849,1349.158136066818,296.64887067489786,2318.244880580145,3412.9973655609765,16392.708161766142,1803.1881152261933,1355.7541814220722,293.7683900701663,2300.8378363942234,3433.0370044069086,16413.344557233395,1821.3090069433422,1357.2474953307258,290.59494307523914,1950.9825719386663,3460.5408706765484,16384.13156355161,1824.7600727042363,1353.2552932139617,305.74400688046916,2180.0481465773155,3299.462221355306,16425.744792150155,1835.597855627989,1359.3033037531914,312.8105620914302,2126.2786504598243,3263.378688567598,16444.829040169036,1824.6013369513685,1353.766187478582,289.1599422790333
2140.0,3564.0,16396.0,1743.0,1356.0,267.0,2112.8972146262995,3617.548354914996,16460.454118404643,1766.049496926581,1374.164786329878,262.54743810335486,2000.4835682791213,3568.8542605033085,16414.866412486987,1733.735969530082,1360.9432764787603,254.63273465984574,2150.318646454138,3656.895399838738,16500.087794859497,1759.5725670224494,1350.6853849222493,269.8613096511248,2057.4879198230906,3621.8090771934944,16422.941687100265,1739.862370650347,1372.7999242847734,250.54896262537522,2079.039260839791,3516.160780071262,16420.852572114483,1743.9135307119852,1358.3476775021777,264.7140942956687,2206.0987110081423,3617.8130470691262,16325.2150154264,1733.8122340475982,1364.114180221938,281.7681984308829,2053.177221305948,3402.373345256956,16386.697845391238,1745.2473460475292,1374.7945622557545,252.25140496325795,2193.052563216909,3795.592669270143,16432.734252032893,1749.340312924047,1359.7429277033793,270.28706134894963,2212.2398234051448,3613.9199430137414,16455.92050569362,1739.9310434583845,1360.4585265309202,261.5126403320059,2133.5324479312426,3527.5990044195305,16455.541046896564,1761.2100443361217,1360.9104385402657,264.3650832720237,1990.7288033200552,3608.3747834190576,16299.404118373091,1751.1410974808277,1368.1623843071309,284.5633729497041
2088.0,3536.0,16360.0,1785.0,1402.0,309.0,2080.536904465971,3369.3369213596347,16286.117285511318,1785.1747068962472,1409.5366823652826,315.9653472737594,2236.518063000271,3527.742152378472,16383.655248864094,1786.9713934577744,1395.4387304660809,307.5731741719844,2073.1226733272683,3631.1375715562167,16428.972707006724,1802.6501520836362,1398.2482390135565,326.3000616389263,2141.5558423029884,3518.836875159106,16256.699106083437,1795.9539689245298,1414.310590225236,319.0363516468472,2091.4438714223347,3576.989141207232,16404.556394187013,1789.1373893451737,1398.2771306975555,303.3862125331267,2165.217523388507,3454.455158099367,16514.13869323966,1805.9324524506283,1397.7027893574839,315.37080738048945,2261.914283210436,3643.7520555809947,16405.3629832999,1784.2146588535934,1389.343834904594,310.7953261826346,2082.4831753860026,3392.2014547583385,16388.507627339146,1761.3994953427073,1389.3807227986977,311.84469882776534,1987.563580698835,3519.6529274288982,16352.739627168567,1782.8599961549694,1414.6520107774136,306.56512791335285,2186.2809861319556,3652.683756293874,16323.698920778626,1780.6036534502475,1403.4549087786186,309.408283394688,2081.911072108711,3419.3215985001043,16352.54516760536,1782.7838546352475,1402.159041479532,325.409982569863
