IMU1_AccX,IMU1_AccY,IMU1_AccZ,IMU1_GyroX,IMU1_GyroY,IMU1_GyroZ,IMU2_AccX,IMU2_AccY,IMU2_AccZ,IMU2_GyroX,IMU2_GyroY,IMU2_GyroZ,IMU3_AccX,IMU3_AccY,IMU3_AccZ,IMU3_GyroX,IMU3_GyroY,IMU3_GyroZ,IMU4_AccX,IMU4_AccY,IMU4_AccZ,IMU4_GyroX,IMU4_GyroY,IMU4_GyroZ,IMU5_AccX,IMU5_AccY,IMU5_AccZ,IMU5_GyroX,IMU5_GyroY,IMU5_GyroZ,IMU6_AccX,IMU6_AccY,IMU6_AccZ,IMU6_GyroX,IMU6_GyroY,IMU6_GyroZ,IMU7_AccX,IMU7_AccY,IMU7_AccZ,IMU7_GyroX,IMU7_GyroY,IMU7_GyroZ,IMU8_AccX,IMU8_AccY,IMU8_AccZ,IMU8_GyroX,IMU8_GyroY,IMU8_GyroZ,IMU9_AccX,IMU9_AccY,IMU9_AccZ,IMU9_GyroX,IMU9_GyroY,IMU9_GyroZ,IMU10_AccX,IMU10_AccY,IMU10_AccZ,IMU10_GyroX,IMU10_GyroY,IMU10_GyroZ,IMU11_AccX,IMU11_AccY,IMU11_AccZ,IMU11_GyroX,IMU11_GyroY,IMU11_GyroZ,IMU12_AccX,IMU12_AccY,IMU12_AccZ,IMU12_GyroX,IMU12_GyroY,IMU12_GyroZ
-3232.0,1924.0,16624.0,1811.0,1411.0,312.0,-3163.8203442265067,2005.9707451209063,16631.065555871563,1798.756369573029,1411.5613168247176,310.98947313253433,-3327.843560116395,2111.579084448318,16736.132262626168,1824.8304742595385,1409.5791760423713,328.2134479949681,-3402.458668556044,1729.3820923090966,16689.02451729309,1823.645726250749,1406.6862966392143,315.1981920592125,-3318.7920098016025,2023.6102929707422,16776.842697388336,1808.9025564858923,1404.0126231353486,321.9006994405223,-3187.4860078791257,1933.6974191188074,16748.841741831457,1807.3867157050195,1400.9565864304827,313.8488217380417,-3435.9818636651016,1908.5559568909298,16576.786029366234,1810.9466806217938,1414.4026014714716,318.7856106043399,-3338.2440503766193,1748.7219880410175,16657.35081966826,1799.661247706397,1412.4547675837468,307.0162019589015,-3242.2370233690713,1922.8911169252833,16512.241457607925,1817.041503730914,1405.1179668513296,326.63600572028054,-3228.8124132039206,1818.3649792094216,16616.612545714663,1808.89385073652,1424.4657270111388,310.492038634484,-3175.06084072078,1889.424483562147,16708.482401638466,1806.5763358497124,1423.305401765989,312.70493362004686,-3085.3237596046106,1789.7630481372332,16677.59830344477,1805.8045063070297,1408.378203941071,313.65514153350324
-3084.0,1964.0,16680.0,1784.0,1431.0,332.0,-2962.1222201426103,2022.0469399994295,16532.55580792027,1778.3488752523426,1416.8266098000718,345.16829834276757,-2985.9912631610487,1987.523225692782,16908.811889718938,1782.6807328030613,1442.0968344910125,343.61185452479197,-3060.1652538939134,1928.5538451356035,16461.057889926018,1779.1574899777609,1438.8924671227091,333.8164313551237,-3217.706735905204,1953.820169279632,16787.574577732685,1780.1738676567568,1427.0984130830623,339.1732243459311,-3081.4131958826056,1960.4938098943062,16804.31795663772,1785.8527848049166,1440.082002342399,320.8420788833963,-3214.1052195844813,1987.1083199635727,16817.761617649274,1779.5123857045046,1425.89554366241,328.89557011136907,-3077.395362212761,1990.030247604245,16524.492051690588,1786.636495622118,1418.7341690394885,319.017349266599,-3185.527682941442,1973.3835651880381,16584.372644193765,1768.6459800192567,1414.6926751358046,342.60380695117595,-3097.14207018642,2012.3006006777043,16742.27390359343,1779.992191992319,1427.8254264440495,340.60878394463566,-3118.064298338655,1948.3741212248742,16933.270916179557,1784.8526403329427,1433.7443650282378,325.469367399981,-3045.8362721629087,1950.7253796278112,16812.345392144503,1770.171371022907,1413.5669424722169,339.3946355331723
-3092.0,1772.0,16692.0,1819.0,1424.0,320.0,-3044.0105650494493,1640.4907429016364,16787.735735111943,1823.978753070043,1415.6880859681728,297.97583869890997,-3003.671845298902,1925.7011626701922,16478.84556140243,1814.1117020775112,1416.3279855365904,317.1133003226327,-2916.6056409003922,1848.3655351481445,16822.50520338049,1803.442176184045,1430.6171499902564,315.3940299182759,-3196.3236247379677,1713.3146893957387,16681.51773623032,1814.6536379132058,1422.7425609784996,321.11110910695163,-3263.4899086443384,1763.3299840321615,16680.80961133877,1813.7285969333045,1413.9907792740185,320.030377958551,-3242.8519469381204,1842.0306590641094,16607.104108781186,1807.2570956928669,1438.466797686928,319.0460732374752,-2993.2395393404313,1780.242153670974,16490.151065424954,1818.9517276756299,1434.4198230960228,322.9709632836295,-3166.4082425938514,1924.2720933877308,16575.976283902284,1811.5374751577594,1416.6849834533396,315.3095843235871,-3095.0244597440865,1809.7457126571187,16542.319281373995,1828.9959311776574,1437.6594637030344,314.6781767458876,-3121.6586660823205,1950.8998341763465,16722.173676597926,1836.6142999265487,1406.0456552711837,324.82978857787833,-2972.365066922428,1871.6257692554207,16755.89354290387,1834.195362398817,1429.2498229442795,322.9235184839569
-3048.0,1680.0,16592.0,1804.0,1428.0,248.0,-3167.468543204867,1696.679383277975,16754.807501325948,1811.043493183053,1434.3387788008738,244.3423219121374,-2928.8488507729653,1712.6770885897517,16358.887531485432,1825.477470436891,1425.6907093292461,242.16390667707293,-3088.044470573643,1519.5832128967104,16584.244747509572,1796.8164268003572,1412.0441989878614,223.4021161993976,-3211.648307487104,1642.6078424537432,16625.448498159985,1821.5537850340638,1442.6139667793248,242.22635105836167,-3121.489533125505,1657.2030282802866,16595.619816235845,1797.0483751816687,1429.7169674058769,232.250491379408,-3115.9496272075608,1787.7633140689832,16420.851377618998,1792.6839651180294,1413.3874644851999,244.62260890787317,-2991.1547429949787,1608.6588719084402,16807.426621568833,1806.5322289291853,1428.270803951068,224.1052025079428,-3083.6751486396342,1684.6541776169413,16844.036868507606,1830.90203162929,1430.0589942604881,247.47379138825255,-2970.6227886439756,1667.5076132930633,16805.410547103278,1806.3120987176535,1437.6622255946124,268.1379884044203,-2935.6504163653462,1856.1855619810692,16454.433902618966,1782.5383118212733,1437.191902465438,242.4293537628302,-2901.159146756207,1696.0234872414935,16465.295448201756,1796.6608812157788,1433.3053355414488,245.39522455067797
-3064.0,2036.0,16564.0,1640.0,1416.0,191.0,-2994.330416599765,2132.3895269047425,16487.708510079035,1657.1354731183817,1416.43600827975,205.85085951424728,-3101.985515969036,2038.1632856470897,16744.145586630733,1652.23571268305,1422.9226582852853,196.48513492541224,-3006.830992583686,2144.113488413325,16533.80346364053,1643.4659570311997,1418.4158890172885,179.8969929094708,-3207.1682088848156,1986.2718329154363,16538.75861290412,1633.5370012165263,1405.0526713214128,204.20745719918398,-3156.1144067366345,1985.2869342647507,16619.49648270382,1642.1143813913934,1424.8675868418377,190.8527375415683,-3007.4907280344905,2093.5428636167844,16629.9524972087,1628.2984893801577,1418.6597597439963,178.76652192646867,-3126.0241421059045,1982.297371285189,16542.67306577761,1622.0433195523688,1421.1848455311351,170.93677563591868,-3109.90182246749,2142.5667890412565,16541.839217898552,1634.0248423555615,1413.9184399555115,180.8864385848251,-2926.5685535885377,2178.1953868927185,16750.837027650625,1633.812801170105,1411.589194504762,196.3958076131267,-3250.6472786709933,1873.5639804702505,16488.486125236064,1654.506109367404,1418.7959470252056,178.30572902557017,-3013.6818521359637,2034.1655072144158,16541.133163031933,1633.299556711357,1410.029906743409,188.79349546659012
-3132.0,1892.0,16440.0,1541.0,1311.0,80.0,-3134.8034796805673,1961.5874647783103,16424.039011103683,1533.0131906738093,1297.4600931692867,65.47466010490618,-3090.8768629156743,1661.8418595440596,16452.69684382951,1538.5320544381373,1321.9164628973017,73.46062546872734,-3079.7779889372086,2043.7698391267925,16336.342412510961,1554.4074787362492,1316.0331791767862,71.57145956077717,-3055.4900593935376,1872.6195123068355,16545.737123844083,1555.0728087545751,1309.0423010215738,64.76560222560656,-3177.299780569998,1786.4170591557688,16333.07473750338,1539.068873139874,1307.4317400588895,87.84679692550762,-3270.162124816293,2066.3252979584454,16440.92912532658,1540.7971856166016,1301.5553880954485,74.69406680448549,-3116.9249823209007,1804.346724979689,16508.56371881223,1551.1135687567123,1307.4551611980082,76.91372411138472,-3033.6996884397686,1832.020519751792,16427.79972971624,1541.458771232608,1319.332392648219,91.29299414480238,-2991.3911096351458,2055.4082441031433,16385.923552067426,1550.0219304110947,1308.4088475870506,86.83507195391577,-3159.680338457549,1960.6058090406968,16714.659206693457,1540.4033960428096,1296.4498887690656,74.24793650209403,-3236.6794135808514,1700.7100110072693,16418.356667455577,1537.455729492199,1317.5910634626348,96.72294465154948
-3276.0,1972.0,16356.0,1728.0,1312.0,128.0,-3210.6020151971247,1977.4043573044924,16390.722085856563,1717.915588934238,1299.8457405328372,131.16392115657172,-3199.5023257617063,1968.1699499869737,16427.917400760365,1714.2758352378762,1313.207737118299,132.20207532318167,-3309.5963280095857,1965.8393574219047,16279.807510850856,1741.387291405681,1314.990443843525,124.9458267745485,-3321.357642792415,2026.506759324675,16279.064128354574,1735.9927779568732,1314.1893154899446,127.96412289683344,-3335.9733670087476,1954.6538985527836,16389.98207632417,1727.3081889183095,1301.9753655563368,130.57828640249988,-3323.1820569075358,1899.0891253728796,16392.70146398077,1731.0171330938222,1303.1042096649223,123.83317217119952,-3149.351310802362,1992.1810178115363,16297.344520393634,1724.206874014338,1304.9235563313314,136.89577164014324,-3288.9811948645674,1940.7110327016367,16263.141938472363,1727.3827949292845,1316.6989458102673,133.15319593470485,-3176.758710984422,2047.2135809293748,16340.693622094235,1728.6661217477367,1317.6600136184775,131.8000307129468,-3098.7861013139686,1803.8066427226474,16349.956866684586,1715.4093800387334,1292.5001794150774,125.46321672298834,-3431.4917050945874,1988.8464967205502,16451.216608852144,1726.8014432706598,1305.0933297712568,106.24905616964341
-3256.0,2020.0,16412.0,1751.0,1395.0,176.0,-3319.220731645011,2078.61361876849,16459.810709281614,1769.0783152207562,1413.2602487681472,188.9279648121255,-3298.009076979954,1954.808556778777,16346.63990377112,1736.099037431579,1393.803640719743,188.3921998120658,-3270.2717041785454,2089.8617565384084,16423.966087445653,1743.319790431965,1395.8539932408048,177.1293006656801,-3251.348589020594,2077.7306810191512,16532.532983934976,1759.054223944822,1410.9213841357662,179.1617156243735,-3053.3486161924416,1841.0503710438484,16284.1429043793,1764.0773731721326,1417.6228539870797,189.14119846114113,-3292.3526629811477,1906.2287181009506,16325.426855154536,1728.5879458583456,1397.5741779128766,186.07258050771446,-3219.3064158299353,1941.9203462815262,16443.32510254699,1763.7879321098712,1411.0113574699915,174.57560853459321,-3195.8016437627534,2096.112370936966,16537.263796506726,1747.4132913028757,1403.7008703192917,161.25524260863227,-3275.7775268572223,2091.821704643772,16180.405690083748,1745.0237083898821,1412.8288412845566,165.3865352407352,-3221.6138061109573,2086.6291068979062,16379.91153252712,1735.616160608736,1411.5672670542767,167.2108502288677,-3344.2487259932186,2122.8320259487527,16364.132615162533,1763.2516598592754,1405.6892407793448,168.3298547059219
-3128.0,2144.0,16280.0,1717.0,1375.0,203.0,-3108.712926547161,2300.9254660408415,16405.960487763237,1723.9663560442066,1383.9235216444322,188.2222801339423,-3145.2308632297763,2284.6772506352277,16213.45373101701,1717.8041616421738,1375.1289534405882,210.69980046454486,-3062.967419858327,2106.781018455214,16116.03841086389,1720.609025057693,1367.5797407833518,196.09574040919273,-3219.544366602087,2018.310994511576,16256.107155993128,1721.5723306499,1374.6690203985765,209.23820264708633,-3005.729173273752,2016.4919673296504,16380.60765666884,1720.9294419067035,1353.827514625846,193.7445120959503,-3184.5224615711145,2255.843832139082,16253.199185077861,1707.968597976005,1371.7994443762334,189.28099037215063,-3147.69870707709,2178.9016527852923,16253.619891716371,1699.6181178349725,1364.5593922689297,181.93990863719273,-3212.3408670590875,1968.0639356535626,16265.26989394125,1707.096478889671,1373.7512983207976,205.20002368182443,-2903.9736611957596,2131.5177786781614,16232.723573891588,1711.2540561593253,1369.2230692500823,197.8640509341704,-3078.411792826968,2094.2291724673396,16226.857652751989,1724.403830220555,1381.579814067167,194.31795751657887,-3128.5533840115504,2168.912129981161,16111.304079420299,1720.497316208633,1389.0824193085984,204.24891174834153
-3112.0,2212.0,16376.0,1780.0,1396.0,253.0,-3153.10963437321,2133.5340442880815,16220.600452269988,1793.7895755350562,1393.5857370807482,223.18650745681902,-3180.0277233085676,2200.245669340674,16332.802856336823,1799.3429417510133,1396.9474527847312,246.60427387200968,-3052.228094399222,2179.5502492441565,16348.242729739644,1783.8396954845343,1391.9283959904185,248.22586613481477,-3219.3625730815065,2057.8890552549096,16283.678831792402,1782.5994734224134,1391.004332482995,240.43200222282601,-3149.5372406396705,2482.8882357647612,16240.218119020403,1777.1602395014604,1398.3018349536264,247.40138358934794,-3103.825287079093,2048.1825852463667,16297.949672824689,1791.2068391961802,1408.0248336025365,251.7514620227658,-3125.8072428761984,2220.039849688699,16385.347866724507,1789.9309203048376,1374.633887818492,258.488041283388,-3297.473800434289,2212.1536454309294,16514.23893213336,1769.3689327902066,1387.0539161091253,274.9045022291039,-3082.4605109103945,2232.818323167387,16425.899421559945,1786.1192069334063,1395.977000716589,241.558812889906,-3038.7996283629213,2088.898023132814,16570.75517224657,1773.6513563754131,1393.3710771959875,256.59398552728925,-3184.809968051168,2213.346089458714,16322.88614499422,1768.9368329741312,1390.4354053051052,261.6219084954628
-3040.0,2184.0,16360.0,1850.0,1457.0,365.0,-3189.6900038911804,2075.490857481123,16464.272218929204,1874.0386363632495,1458.9925490782236,346.9134902005812,-3060.1513312101333,2275.736874840728,16171.092247118198,1866.7311884550584,1459.2319552616343,350.8119631191268,-3142.2811383237986,2218.008548980818,16336.90114064204,1850.1525094821338,1455.939515664438,378.5367557037335,-3039.486559256648,2224.014807991266,16345.396238120493,1863.3682926945582,1456.2175414802198,350.7275666252042,-2876.5382613784177,2267.987173926274,16350.157536930434,1854.1921283706436,1455.204255166905,363.0950134416869,-2949.6909884514653,2238.321166623917,16352.417111160614,1846.6209713183252,1481.699314503337,359.3629522599917,-2992.2853636489604,2106.1972634218696,16441.5969085318,1855.7431976412324,1457.7346851951106,379.22607526168184,-3024.27421971383,2115.161946823296,16423.623432382436,1853.11692755397,1465.5019892936944,359.90945213545785,-2951.5446873928963,2156.510716549332,16228.330246683914,1866.1016450060574,1450.2666523684345,355.3136050801905,-3037.753373455563,2227.3934725156546,16303.286139594318,1841.0803976492398,1461.6833980642702,364.08106508497815,-3179.158223765614,2108.2308910380793,16303.379968300458,1847.1012173978474,1466.9012823467303,359.78255621131916
-3140.0,2092.0,16516.0,1743.0,1460.0,409.0,-3150.0207052651035,1994.9343943912866,16682.290663827534,1734.1793967645642,1460.6683070043239,414.2048244527283,-3243.650504834345,2146.1984157263014,16540.359208234317,1744.743984041609,1452.306255261726,410.9596034851443,-3196.8972628232427,2293.5723441684177,16612.801495648586,1742.4200447557525,1465.4981478603231,416.07557707449257,-3240.3953728328293,1960.2825856331422,16649.160691499077,1744.2786893488676,1463.5434994307932,418.55803507318467,-3139.3326439416346,2038.208429022092,16365.442882842519,1738.018986485963,1457.718206176381,414.5926210609964,-3229.108047576093,2078.043601445409,16601.608668108674,1747.9394167628548,1467.7243362524573,410.7280567125419,-3139.103098542254,2170.878864705185,16568.67122253736,1745.4064906723718,1455.4627507229757,405.4956642443999,-3155.2012745492193,2217.5697411642836,16532.375401024467,1756.2729017747492,1445.8833650640927,419.6168463913707,-3096.7295869912205,1803.703225325848,16620.199114326424,1740.2754854491864,1458.5483018365278,401.97338454813524,-3104.4546752583306,2191.498709454566,16636.60386955124,1750.5128971399297,1469.8802054349687,420.99358517460826,-3055.789130676416,2053.878558951587,16795.337433728455,1719.649727653532,1455.6467993863505,409.0405210990956
-3148.0,1964.0,16488.0,1745.0,1388.0,486.0,-3103.1874211583595,1995.6981805407388,16566.227100008735,1754.2305431889263,1384.2912386655546,509.4270904577094,-3079.2581473904097,1920.7027458059938,16467.746387550396,1737.0353829763528,1386.4592723905496,479.8184371546353,-3209.0166536703896,1859.9848633444808,16379.418899661187,1739.6956172977457,1396.4072712807738,482.25448777750677,-3137.584434403354,1969.411074925963,16477.03054835633,1747.6018942310145,1403.401244144225,486.45482398438713,-3184.6741020783543,1984.5270801038173,16385.469082436637,1757.4565024376975,1397.2547372681431,502.5206025136141,-3001.4501058249243,2032.216107485923,16333.295252043234,1736.5805046605738,1380.3093767865284,486.80626952092274,-3057.6969017801557,1986.3584996926857,16580.22124513256,1737.8298721667709,1367.1945148699497,467.19781194130087,-3135.0726991061447,1776.7458055802604,16499.58583270958,1741.0275415315039,1390.0442773929487,487.4682965122865,-3200.2032226028828,2075.1196384477116,16644.386120447318,1744.1198699542922,1397.554908424807,499.75014215810717,-3223.7269962673527,2076.904733361184,16487.585007066496,1745.6149184482038,1400.5964976261428,486.34283823586327,-3154.0480840088494,2005.2728914913516,16349.920871334452,1742.2328795627777,1383.8403469353746,485.0262019405773
-3088.0,2048.0,16520.0,1731.0,1407.0,416.0,-3121.4895551440018,2240.0682854884662,16667.78988031643,1738.0135225008082,1399.1600915187817,421.4766132967704,-3081.9085221638998,2104.62140756798,16493.08098871403,1746.089100532321,1418.7394981122416,415.1788117444536,-3138.9472039811317,2225.7585708622387,16537.139766991946,1728.479548836299,1408.1245706345226,422.6956760544329,-3068.6951799282597,2116.12915966515,16422.341493132222,1731.489789825926,1385.7660852521778,391.90262183357015,-2919.198979237182,2108.249873411669,16371.289000300638,1746.3590320048027,1422.79482582468,398.9600554251917,-3237.695655104361,2035.4677974418823,16609.407735892393,1733.2685173993975,1412.6439825516218,422.8118482202046,-2974.969335121326,2093.2492214229183,16495.693350711863,1727.1843565456968,1396.2055767023435,433.0652629817445,-3076.7592501212716,2259.8485888517785,16582.07590982819,1732.8681463291468,1399.798504780222,423.2032994404647,-2876.5274040858626,2080.4256829727183,16410.499062310282,1737.1241596524428,1399.383933626056,419.4873873855148,-2980.168413481531,2225.970828975364,16285.10908766655,1710.096745459916,1403.7463118826463,420.81447135959786,-3083.883472285262,2046.3184354638684,16733.09361126432,1737.1206817330972,1419.3055183162414,395.70654607147657
-3116.0,1868.0,16528.0,1620.0,1405.0,302.0,-3013.8342033553076,1921.7670734100207,16588.75509262034,1625.0442000588525,1409.1048102689729,300.3594500812848,-3109.807835506995,1765.9658387863692,16537.845479972293,1628.662705352459,1409.8288575050703,297.3965248721273,-3210.0745289463553,1802.7865316941984,16493.50017847085,1625.0290341567957,1405.3655139240664,301.1189324200172,-3117.275624895658,1779.8541266292325,16600.878797008158,1615.692189816001,1395.1580616470078,307.9119324734679,-3102.3557436718684,1951.4446070963868,16562.121258287963,1626.061558665426,1386.5473621057038,300.36488138854367,-3038.985798836046,2029.9290054197268,16721.709629934263,1603.8571064019443,1400.5397349430302,292.04015304954515,-3043.054701145305,1872.8729185884815,16456.80865355736,1622.9211090850583,1396.4694589036708,289.12668415564735,-3096.4218645709407,1836.1199010975047,16537.768605379162,1616.383726079242,1417.1259572798886,294.82143929279965,-3083.2875155971496,2014.9257062466577,16437.31416523365,1609.3216854023556,1400.995031442164,275.91535807233515,-3028.815204609585,1742.4498990593775,16508.685058405048,1632.977527503449,1403.2689230389929,291.2974370819579,-3130.8378265156757,1966.4828751234459,16595.289351064406,1603.4532333934017,1420.2294429685526,321.60489274148676
-3084.0,1792.0,16584.0,1862.0,1449.0,338.0,-3012.4747704978795,1734.1919328062877,16760.093242744497,1868.2539600362325,1440.7113839723042,326.9500688381679,-2902.6061614406326,1839.0702862081998,16522.789292104997,1843.6166364250782,1457.2630208031514,339.97369974494654,-3312.2219930928036,1776.6946705050063,16729.64807050409,1862.2806371958861,1437.6195864084893,342.48314713596784,-3374.0256449623967,1806.5719665915626,16646.49359214918,1845.3040845384994,1446.0341044286206,338.3351330516162,-3292.8743577482273,1706.536174641823,16730.639237776453,1856.261769721517,1447.9236251390812,348.10126574271544,-3109.718018235404,1698.6165819432138,16488.24565767567,1856.1043695176013,1446.0765369243586,344.3809472535103,-3100.1846706235856,1710.4006339312375,16498.3149228028,1860.5227847864421,1455.5305925902678,340.6857171178591,-3041.2278634219433,1751.3270662409923,16622.53417959026,1834.321590861677,1441.691327151917,344.4995104079196,-3040.954897962141,1905.7976622091728,16424.7698097919,1860.2942648564417,1426.511999951014,354.24422891592405,-3279.6984732387477,1830.7462806632136,16543.720952499098,1858.4718455406598,1452.7097606197726,325.2349013718056,-3070.463002879004,1935.062817649677,16813.385520887015,1851.2485221963204,1432.5320422614548,340.1159426250539
-3072.0,1968.0,16588.0,1872.0,1422.0,420.0,-3175.427024706769,1957.0152554526676,16876.626949897614,1866.625651190216,1425.2366214703852,423.25502462590873,-3078.406439436295,1869.1335272189503,16661.64435850476,1865.3157547525634,1428.7020072690448,413.1093612251299,-3073.900954536319,1920.6436405398695,16587.993476070027,1888.151012363855,1415.5038336122047,441.5071619642443,-3017.7043322465533,1964.6603311837137,16596.456087879553,1877.4227702808516,1410.8971892779357,435.2824651513323,-3092.5405359587044,2102.510201533613,16531.894723024267,1868.035543228238,1408.4699509078275,415.03177039496717,-2994.673143915957,1920.0599012468874,16523.00285857191,1866.8736545166573,1439.8959562002776,416.8322647504962,-3085.2518708336333,1963.549144542055,16555.5025086604,1879.2275917995178,1425.5343875614205,431.18905143833416,-3015.9267914017983,1920.2370197319603,16514.066683418678,1868.2440036926316,1428.1567970518913,408.8359707661039,-2889.496755433403,1949.5499257768683,16643.919110399394,1894.9209463175816,1411.0257914516003,397.127066492353,-3176.022715703487,1976.5761770259055,16662.74909094496,1872.1302477634981,1417.59541709181,417.66019475352414,-3079.1858639200354,1935.345917956783,16572.60742304406,1863.2414608279576,1427.46921373796,402.8114165184367
-3056.0,1832.0,16488.0,1580.0,1302.0,263.0,-3044.7417087249546,1882.379752920683,16478.768185309058,1594.8990898006643,1293.6633525054901,272.2438792462232,-3049.356104421963,1880.9646002962595,16398.283533524937,1600.1696089101506,1303.4480153396737,245.77134928120327,-3036.577223946681,1819.659334776928,16454.710405383896,1569.0295422881288,1296.1282351686896,266.7160803949839,-3104.1099140370343,1747.411201107865,16396.809219890343,1586.707789570836,1305.8493736372943,263.38994524980325,-2980.46451027979,2082.9090358898134,16516.861305243918,1565.986154007542,1285.9849493480478,265.68257939332574,-3102.9970254918508,1673.6404716495088,16628.613515333094,1592.5790029665236,1288.4717768261382,254.48451206797972,-2894.967604509845,1961.4027134468295,16482.599277577432,1583.0437533874049,1310.5551706511578,276.34937220439457,-3138.39214020792,1896.2058710112392,16419.758976465426,1589.106034186209,1284.7028844172642,250.93039788093242,-3124.318462092198,2092.8508058669872,16499.88617702176,1572.2857520165962,1314.043953754454,253.84561866349986,-2931.8109161795637,1665.8807155755162,16488.28266695093,1593.5719542965542,1305.261146997629,260.19789252597104,-2977.8244283729023,1967.7178004760806,16570.610330476353,1588.9458713548267,1313.0912620453958,257.5224679936928
-3128.0,1668.0,16436.0,1748.0,1369.0,250.0,-3287.2213983538645,1658.6880794606247,16337.090536850628,1743.6098186256272,1382.881983570951,255.60001561652697,-3205.519998380357,1686.4950510955239,16415.733854716524,1763.339709367129,1373.331720231994,250.18041722867838,-3064.3776039545405,1549.555905529712,16404.96593764624,1750.246148400188,1372.4719917939171,252.94044080477596,-3317.1644809179456,1772.3661986148554,16553.08410961969,1734.3450652759939,1378.9407759376118,259.3918090554122,-3131.5879750411827,1639.4609446605514,16390.54485819191,1750.38404947812,1382.318548120264,245.8955456142711,-3183.720917948356,1662.8181009268646,16326.632629598576,1752.1189377728692,1355.2983384142326,258.3338937452713,-3102.0407607131147,1560.340145429886,16332.832310092499,1750.9443718222435,1358.4448976973918,253.79827519277072,-2968.387868719117,1558.02657018974,16446.49827857916,1747.467773772187,1353.11031282222,252.459397866935,-3195.0133525847928,1729.4585530402687,16526.899742198955,1763.7697879939572,1382.7046090652598,256.0298669269011,-3206.5760811455175,1600.3716083316822,16506.814769747456,1758.8363018305156,1372.0433379384888,252.33047989859494,-3105.172586998316,1518.4245206487262,16340.821226636202,1757.4348711235461,1375.6525606615844,244.71750354641222
-3012.0,1696.0,16440.0,1665.0,1348.0,72.0,-2800.7368640974364,1828.8428826302563,16363.009686937556,1680.2961887234687,1362.0092656271454,72.58624582550073,-2939.155669878046,1723.4301824479753,16407.454700484537,1670.6484176541296,1350.2499435264958,73.54646591137178,-2970.4812222428004,1597.4940759302035,16290.753017501762,1662.0443695186198,1355.0585607616902,65.7364320239205,-2915.7379835596525,1620.0288213572524,16417.93942661488,1657.845642654762,1358.3019837762981,74.81231733076132,-2968.9777334323803,1514.951162546747,16406.55041609047,1658.0710838907235,1351.8721207038216,64.36281999738563,-3058.11170546986,1783.769103054367,16428.597339412998,1672.2903069724118,1338.395225174071,79.5284010451017,-3213.54307193723,1628.6018209417743,16412.855067913006,1664.0140568872723,1358.9261905758096,82.17712271185675,-3026.2434364513124,1627.429652443323,16440.339778151323,1657.9150649008568,1348.4748711035047,80.36766083942256,-3179.0651616550745,1744.43711647919,16306.309427999358,1666.453138039167,1336.5394406875039,73.44262385014777,-2930.520793443862,1655.8131820379797,16300.861723940952,1686.7669091813289,1341.147817765441,78.33401319033197,-3153.041134198504,1644.6394472284278,16312.606757515188,1666.8661095096083,1323.951637717043,80.67372037055276
-3120.0,1812.0,16220.0,1759.0,1439.0,91.0,-3229.2395405387374,1786.3153407425507,16166.403357904981,1763.7529740857844,1426.0309460443248,93.8063414888624,-3133.6748979266813,1705.092345650689,16231.108251268937,1754.7330520667142,1439.3014326149112,84.37183495993963,-3239.2501283422516,1879.5250975209149,16293.865779495965,1763.0953740497246,1423.9916049016465,109.76010806519821,-3091.237691808732,1813.1458557167873,16153.267814793544,1765.5805920314451,1437.6597097419237,87.97727425102597,-3072.0914350056287,1542.7771485358548,16299.254535066355,1764.3235706275757,1442.8014390569192,91.87386310739183,-3209.595119746619,1855.8267237492707,16227.991062396644,1752.0911566323919,1451.8782669602722,86.09739199729692,-3147.4832113405323,1718.8393597041486,16157.4256362596,1751.6305503042227,1441.6491090287047,107.53499066741708,-3264.0094090059815,1755.683060337622,16100.86879050938,1739.8469839184886,1445.661084186485,94.0444674259488,-3171.4134770633423,1783.5073341720056,16255.051053577705,1767.6969344521124,1454.567946505941,91.35425869784233,-3037.1030574578645,1686.8696263195347,16340.241559254287,1762.0744874738148,1451.8675868976204,74.21595575219597,-3153.0688818888043,1664.0513294878,16184.242673461324,1762.0006820576891,1416.6587323778792,97.80645412869106
-3148.0,1988.0,16376.0,1780.0,1468.0,153.0,-3208.515273682718,1841.23923752081,16466.15147199969,1779.1153982138044,1482.211430319543,146.83480030552082,-3178.0599584440724,1909.7624210043555,16400.821953458708,1805.2478814051306,1493.5426677756252,129.73307989970294,-3221.7865260846675,1836.030983809578,16279.930466124757,1773.0891655803193,1471.4043573113304,165.15690325349811,-3179.5125180143787,2125.7537196769895,16375.325567716476,1772.7672227598969,1471.0562902459124,144.78634161094743,-3399.696711846667,1923.447346232405,16154.466286361165,1771.5904284695728,1473.40423708961,145.31099815383936,-3055.4681704881123,1758.1973638149625,16394.026782463614,1781.2012599790082,1462.056164365745,143.87714313430277,-3306.5563168390318,1868.705160127847,16319.680799270845,1770.8843090395858,1477.3312745641954,152.2558177536438,-3055.586864023148,1913.0997765939778,16438.223709937123,1773.2008762954513,1452.827479108294,146.25293022841285,-3151.2989988505487,1986.8249217075,16401.54492999363,1763.9776955971392,1472.9057074450955,160.7229558172505,-3183.576407866422,1997.5405753608436,16379.453050885326,1777.1217766490608,1468.3752369252963,162.10125200231323,-3124.1237691386837,2108.374816831042,16475.458383806497,1803.283416957208,1468.906656557497,150.81003241751793
-3184.0,2044.0,16404.0,1733.0,1513.0,211.0,-3203.113808971586,1929.0265620314954,16468.241778949177,1739.7073701477918,1511.730729053655,223.51056513181314,-3103.741790488469,2056.74476940509,16496.600079673044,1729.7701675919043,1513.0874547195797,193.55678282812704,-3231.7431771844676,2132.9884186109994,16413.849263882174,1750.7250855756743,1513.7408020952207,206.77529799602405,-3272.7931706263234,1998.3129904664515,16318.305330590703,1753.4341640530974,1531.894807500206,207.21182714184354,-3183.912606947748,1945.3502833014695,16533.283164865417,1737.051275451734,1529.0589303659538,189.08908698224994,-3020.8208906955774,2060.0914029496644,16520.224426753477,1735.5016221116073,1517.662385042732,201.43750681192753,-3187.201702079845,2136.1654401530845,16433.491678128306,1741.5361230117178,1527.4325912002084,202.55357712967393,-3498.569671405199,2110.3490283117703,16482.52464822421,1733.5178675272473,1512.1921670694253,199.1224621550209,-3195.331134701184,2160.4481156994984,16332.804683957262,1736.2198619090725,1516.2045298909989,204.45044011152282,-3338.1250046063337,1920.0306558048571,16368.510919885286,1745.1415161125183,1506.8708782407916,229.33799349674058,-3045.0167400941873,2070.1970515704666,16372.717007638832,1744.6508971069973,1501.6445896573282,203.97445964203519
-3208.0,2108.0,16452.0,1679.0,1520.0,213.0,-3227.9101112587073,2013.0205694951305,16570.691280606112,1676.3580871264403,1534.3683870550512,231.19468888658386,-3160.126922543094,2053.6548948955488,16575.434987375753,1677.1976463868994,1524.8461032249666,208.9053554641916,-3214.909550323187,2171.6212736040993,16385.569439062234,1677.4853069713301,1522.031086342686,210.35195609955335,-3112.8186387990095,2163.105359421451,16331.00368992004,1664.106897098662,1525.4969691081765,210.8579496670476,-3381.8085260238504,2071.3712647077896,16573.03803838019,1661.3580498393135,1513.0295376357988,230.46921408223525,-3177.3479920419722,2108.202344065873,16525.522506933663,1691.3075297525468,1534.428766683433,202.92021106597466,-3294.0230735376053,2073.4903883973357,16241.409692145997,1669.2487045659436,1530.115921392923,210.4197425726219,-3313.507359587015,2277.3393295771075,16494.153864343985,1701.251711908852,1518.0745631803086,205.97113222981636,-3107.0594640051604,2215.7125766631525,16486.02249227785,1672.4109323970893,1505.9493249272525,232.98811038543815,-3195.100335278896,2213.7870736573054,16364.022484008667,1691.2322291548874,1516.749970725897,200.16508818076585,-3194.2773233804855,2126.116409128314,16412.91244277402,1680.8884082301636,1522.8681396786424,217.6898930796812
-3144.0,2004.0,16440.0,1675.0,1523.0,193.0,-3330.368165624046,1950.4731059947171,16535.868780048873,1666.7546782377453,1522.4780496968133,198.8684132278012,-3284.3951079846415,2092.876252517348,16137.157203221335,1665.0063482307803,1508.3631071049515,197.13993115541194,-3086.2297422614606,2065.7037786889323,16629.8428113305,1676.0921693621822,1516.9281141187157,197.86214437292483,-3255.0235519225707,2025.6795397762676,16546.099356583156,1666.3978987410082,1533.9329782346385,179.32137628654826,-3185.72865638376,1853.0542561462228,16385.98904950351,1668.125968247454,1528.497128173885,184.3488856959182,-3168.43302537702,1850.578592042928,16236.115382197218,1665.4610375319035,1524.159053975089,179.15031484372497,-3053.759715150925,2166.8127596581403,16365.46212486487,1673.4846570738816,1516.744136191635,198.71321121396716,-3294.046175120233,2139.8406458192135,16275.619821338963,1667.9755167151682,1524.7033874612482,202.57466625322172,-3517.4215817670038,1879.2819881644978,16671.35953396637,1666.1691733255855,1530.7732624530738,218.17696921586514,-3263.7363698290505,1934.1245948431674,16403.438356616374,1655.6559938589248,1527.5432846062702,175.07593182324783,-3089.328576048817,1861.3991881593668,16378.033571521384,1675.3579758994579,1511.6545567385465,203.07658833966113
-2996.0,1972.0,16380.0,1797.0,1482.0,303.0,-3055.7503308668756,1773.6189227460077,16494.39661032844,1800.5028356838245,1485.3317056641804,294.39674954123444,-3118.7462557387616,1921.5671019057495,16275.91248349736,1802.6586388911255,1469.1548944212611,312.9079051613498,-3094.241035752102,1909.3430647633188,16439.567185363318,1806.1941593380018,1490.032292508993,291.0443314073974,-2957.5873490467525,1940.9160228279238,16343.927577349294,1792.1299038752836,1476.1586143888026,306.8298347918402,-3196.746738741118,2098.0627287244693,16279.445874480014,1807.623903989094,1464.9979332580087,284.0368533410132,-3055.8339399895012,2083.6554689116797,16404.510255647958,1790.4227213493764,1484.6411227785914,302.8854438752667,-3171.5256656014617,2017.0892604117296,16319.842284503677,1787.5408004300334,1473.825722144418,310.10643938697683,-3083.3868009853304,1905.1715639656254,16215.63244570288,1822.7734971639081,1479.318594986344,302.5943113023407,-3056.696929917348,1928.6807936414966,16218.718033579224,1806.2183576352177,1503.2392811998648,295.70307798810336,-3205.0385202079656,1879.8408838414196,16426.680390682308,1804.8553869069863,1458.057185509016,293.8914995341764,-3098.967797915249,2064.0134690041264,16334.643959930678,1802.4691940358198,1479.1054303584235,293.4540507181267
-3096.0,2020.0,16456.0,1710.0,1482.0,323.0,-3198.9320854068887,1897.6423755929584,16503.395816062988,1715.7283285964072,1480.0515653533107,326.4237622697224,-2928.9734632577065,1938.9959162204868,16419.114209066203,1686.9572136945565,1490.3270480110882,334.2634655101369,-3107.6315092514633,2020.574267497109,16462.473115239904,1689.1642525594018,1492.91615376479,325.06697552405177,-3010.1825508013503,2021.2947975320335,16365.417762945859,1703.9777696924039,1478.1501081638464,326.4341653137908,-3059.394659232311,2044.820892211198,16503.680543662063,1707.0521362819602,1474.4804751794104,319.2995839303922,-3108.301985616815,2014.5565765577442,16352.97874802159,1711.8457761848026,1473.5207491791894,321.00735057342786,-3128.9701316156784,1992.607913034539,16630.255289611545,1720.3101612414528,1476.898094734036,314.95674559307474,-3043.135325667091,1976.3287267389587,16430.505338502426,1706.8712637578074,1472.5800287076165,305.7803924088809,-3222.8482935763745,1927.0288920936453,16466.835221131685,1715.3833859693787,1479.4041459216382,337.5927896602774,-3065.6999647206076,2059.2619024460505,16408.736941441264,1707.2196538586281,1491.3304384364014,302.52532381179554,-3001.9683018575797,2058.5093219109053,16403.18312533509,1703.7654833990034,1483.9773561044867,343.8883603512065
-3184.0,1812.0,16472.0,1617.0,1385.0,318.0,-3046.516170260083,1797.235768972364,16365.675716840913,1612.039426246136,1378.2826744843117,321.8657586387116,-3251.910942236316,1829.6368533595664,16425.565153992007,1625.6717415582275,1377.7399357322802,297.3787173378206,-3284.43447637166,1728.30051579467,16629.243116013233,1617.3597760352384,1379.6822740618697,317.6336580640436,-3018.9828193551098,1766.0981738347525,16477.424708170543,1619.1769489535777,1375.1925909914294,311.67730147085683,-3064.8106854975663,1634.7136664185355,16567.099453118095,1605.5337881097687,1390.2643124974124,306.2769687670569,-3082.243449556805,1879.182821859298,16491.00190549033,1627.991227544001,1385.9247448706994,319.4287895894379,-3226.198907141127,1776.4786005123601,16480.1125366962,1612.7892474563503,1398.4181681022196,310.06197792811514,-3086.621640250507,1730.3998022934948,16421.39920975423,1602.0131684904893,1378.4388636956892,326.59684058319897,-3364.863529865756,1904.8394496227868,16516.158198940193,1608.9085469857218,1379.9585018774717,313.93030921089917,-3206.418351851653,1940.4752354424118,16546.566128148992,1605.276237485799,1376.9785932784766,324.60208209053695,-3103.786354490657,1836.2087095812308,16438.677285701426,1610.1151271877027,1376.7209550653704,318.77270706285105
-3160.0,1816.0,16488.0,1726.0,1344.0,241.0,-3280.1924776434403,1769.3640683909757,16652.5866283478,1714.4349464567244,1338.2598610695572,225.63723152924786,-3054.9744301622786,1762.4654169133235,16680.295006553995,1706.9435541286161,1340.0813428415956,241.16244044260355,-3204.51379374718,1917.5218417077897,16494.31334314926,1736.124988666155,1351.6661657122656,229.00077530261893,-3030.4751072756503,1878.816618938904,16447.100497998825,1733.912973105681,1352.0923414743354,244.3956389513707,-3022.7340151686135,1742.7063655204481,16568.869541869342,1730.8403840960868,1345.5902484788653,236.72438168926837,-3248.5535827358717,1753.2637417093467,16463.646486284128,1718.5354685079594,1345.5403683055279,240.83767445962357,-3228.4208657905283,1792.2090456714493,16502.857797433546,1708.65288845905,1336.7562068408358,236.83502407711072,-3078.8370174995166,1866.0075419159696,16307.512926337537,1725.1020055949325,1342.1153587603537,233.7908703922469,-3004.250353623167,1910.566042827746,16535.846588456163,1714.2047537266055,1340.145408810897,242.32268589394258,-3142.660205166109,1834.2594613647868,16449.505200093805,1715.9627082099862,1320.1239125512384,239.67224067644605,-3361.656606950885,1775.4595381573154,16429.617964066347,1730.848203263336,1340.0578389159025,230.03600070787104
-3224.0,2052.0,16568.0,1842.0,1416.0,300.0,-3187.6183736211046,2178.995717516493,16747.903065269245,1853.1800875739423,1425.1079544273339,281.0460502666905,-3234.7935541228408,2164.9428284487262,16554.67477259097,1851.4739313344894,1430.9660675794437,297.77882156721296,-3344.2169607304186,1966.184126514089,16463.211323151147,1826.33650802734,1417.3169311860315,304.38017484882,-3305.6189015654413,2126.6632995737186,16544.899027117204,1831.4515023265508,1406.4625380294835,305.03989933489845,-3352.528637845044,2039.2326944276392,16594.202648074548,1851.849982186868,1408.3606343426964,310.79652400014635,-3187.8259552323507,2101.9860862907317,16720.859819890517,1842.2934203353516,1426.5137996366086,290.15169315437237,-3316.8274158687514,2079.2958129654958,16693.152694589335,1832.279514477593,1422.5701014522588,305.98686996724166,-3084.799469699345,2052.631798880367,16659.462160127387,1827.6466144105846,1406.5601051885158,289.1940547599718,-3045.0069506353584,2116.0873484318154,16551.627469116946,1857.4594925400459,1404.3684688764326,290.8450185136799,-3459.5438912011555,2015.274831762354,16357.256304524377,1828.6275305758866,1416.4363038894294,293.81068708765264,-3377.4271183154733,2053.671236099499,16677.53756082956,1833.874558103412,1424.9374171722466,292.3528852442784
-3228.0,2128.0,16568.0,1725.0,1517.0,255.0,-3161.3357619070466,2124.622082256829,16454.3601032292,1714.9660456888853,1519.7792181244695,249.1085104694178,-3264.5078797179867,2127.414047789536,16670.259563859967,1733.8666298141204,1505.790895321934,262.90824506164114,-3260.247398547663,2208.462054197647,16610.11980643941,1707.2689581968464,1542.087137558665,254.9503337537156,-3259.4582760443373,2043.2010774989396,16561.000828283093,1732.6406093520795,1507.0074906483455,258.37033968948344,-3346.675679519998,2042.7896336118968,16643.724397364633,1705.895300623559,1505.505746175402,256.88086835238164,-3302.999403543054,1981.9742596539527,16618.975942120767,1732.3675637479785,1520.4626831429314,237.00857557598945,-3207.0537224473323,2119.941017913859,16627.048257907627,1715.6667116000822,1515.9922503385994,252.73530910498906,-3209.7277715256446,2103.3241292619246,16546.94819299484,1711.3957844941856,1515.0836854938987,251.26350972415688,-3170.942091669847,2145.22235569161,16728.064475185394,1720.8891522478968,1512.3573389225187,264.1907430404718,-3188.660719981256,2077.057076077938,16704.947332320826,1706.933643006822,1525.1103817495703,243.96602673967826,-3299.857170778086,2068.601187821763,16609.229543716152,1734.0956728658396,1523.1321604766074,274.3337201652313
-3128.0,1996.0,16808.0,1714.0,1508.0,337.0,-3003.783468512893,2001.2617017161404,16830.11683641146,1714.870178894085,1508.515943458374,344.1655730687233,-3348.0360064413876,2011.1247302654137,16694.65195018301,1719.646650708594,1518.8449958943213,350.1808573460331,-3094.8785640576984,2046.0141114975058,16989.393542477297,1726.8433667685817,1515.8123322682839,350.8662583115275,-3276.6269047858286,2026.4167714554374,16878.81954975405,1720.9926121286355,1504.7372268064425,331.41416807166416,-3145.990468890313,2098.7617555812863,16718.388297995065,1708.7597057966586,1500.2186313246948,345.42159770292096,-3103.728110162878,2062.9832633723445,16850.9322285873,1711.538080924052,1490.54958651468,335.71385502337574,-3182.635779301463,1947.4083770124673,16701.954683876105,1718.425165444371,1523.6137962471003,349.1011397723575,-3286.9819356965595,2129.288397978833,16849.513556107508,1723.3845922547148,1515.172171017515,323.08031977633937,-3246.278108917553,2133.856358405541,16926.743518781932,1701.7048208659405,1505.6667009540024,332.39846489523165,-3009.1593164600254,1928.496323658689,16764.077809144273,1713.5595722249634,1510.7349257659923,324.81751056496427,-3019.5504501045816,2280.897263428541,16695.130717325643,1718.2690509305805,1507.1924019184528,354.33432114763247
-3104.0,2064.0,16688.0,1847.0,1560.0,328.0,-2991.641643664254,2153.0864052674615,16511.728842578443,1831.6435746745135,1570.2294766569821,310.64539884472595,-3045.286901966949,2087.605415771155,16633.441135139023,1836.8641665437897,1552.4218579132503,324.2291842977691,-2967.060824287378,2047.2913782079381,16666.053696020794,1847.8509691950508,1571.1545578728221,321.05853900868794,-2801.423929962239,2083.4307001127854,16777.84618035836,1842.978217112449,1565.6332801660587,331.0082769236223,-3105.42801565586,2036.6284128590396,16830.59610686594,1855.2826439059731,1555.2891914024488,310.5150221147039,-3120.047524596291,1983.193478213032,16578.42878989417,1827.3427711270579,1563.8871181872896,323.82015824179166,-3234.524809095949,2031.8302450323138,16663.83566469559,1840.520256305826,1552.670202669348,303.2960148377927,-2956.4919933376427,1981.560380123155,16723.48841976221,1840.0680655593721,1552.789663200481,320.17381994973243,-2930.2449632723283,1954.4700888452646,16845.87127222394,1840.6097268582803,1566.7704266175715,330.9996202677292,-3228.4564019470213,2217.7340232684005,16617.833246638478,1847.9861108341238,1569.4943017395951,352.2496050353244,-3079.270200506676,1990.2789008987306,16609.675866197675,1828.2858626814032,1551.7897110137676,341.6584777036956
-3248.0,1984.0,16744.0,1676.0,1448.0,291.0,-3353.46624433487,2216.0772750024,16769.4738540089,1682.4300867222007,1439.5025541562768,289.2223840566036,-3272.270910869691,1968.451060071222,16755.32017923827,1655.7331540466487,1463.7485706272146,299.5080079264558,-3320.9518672554295,2012.0013285107893,16870.908378395692,1662.6993024771782,1450.8334267109017,279.305550013133,-3131.7309745393814,1945.1767211611907,16682.432089632362,1688.468031839539,1434.6939681404108,293.4983245697358,-3495.905239380053,2038.3719801149298,16644.619209950135,1669.1215618667215,1464.2442174089774,280.8468974518143,-3350.817182101577,1966.0968357238366,16968.301326882058,1667.0882875910313,1453.440226253051,300.16736826185127,-3264.5627822989686,1959.6187324878078,16631.924347486416,1680.2983696082795,1446.2431525986121,293.7131416175491,-3126.2685841595503,2153.195573471318,16841.64635640797,1682.9842792810084,1448.1951871774274,309.63976710491664,-3308.02574731347,2075.405462387306,16656.342322534572,1675.1282519294373,1448.6017210047353,281.04019817925814,-3115.3387561995073,2022.7850073105244,16788.021064570363,1678.8652346397903,1456.1929238837258,286.5151016178004,-3090.4286098806347,2127.483735971617,16669.288328908562,1674.3162531630771,1442.0722166340702,281.8353979329579
-3108.0,1868.0,16648.0,1647.0,1311.0,264.0,-3116.945504620514,1821.947394790285,16801.150431989845,1655.279314459039,1310.2428715875546,266.6198839467668,-3026.005295006724,1884.9329725523796,16554.906199666613,1650.7094416867642,1313.0030143801985,266.6802140730696,-3020.4899244911544,1896.8048573468025,16573.7398134544,1658.1039542771227,1319.0889548728865,257.60485519428414,-3149.6890191400807,2061.0762038527128,16644.121981545144,1638.461778730777,1303.131178477621,248.98323904219183,-3003.3998656043336,1864.6383370806059,16651.73863632356,1654.1353983555414,1324.2966462843929,259.4917699763295,-3177.1744167502793,1837.1002839831501,16646.39618716063,1646.4253628707434,1320.3885577311835,272.34940992090367,-3119.573004571491,1687.7834311215356,16631.375927084453,1627.6405090996373,1315.3117787731142,256.24320018675326,-3189.6414504072823,1872.3926651523097,16352.780929624689,1645.3150134693044,1305.937183123471,261.7996698941516,-3121.6616753564476,1994.3279404993727,16643.113214237048,1641.2052856579912,1324.8948875056335,265.9086173286241,-3198.4713217952844,1825.910579776587,16746.73641689365,1635.5978258408004,1302.9202835336994,275.91721145321634,-2897.3077390438557,2031.0965361843337,16495.08654260218,1654.2476150418208,1307.8092571708871,268.49821211004644
-3136.0,2000.0,16480.0,1824.0,1396.0,315.0,-3170.5614451445363,2046.807735757984,16721.883343614572,1830.8567454988486,1400.37403190942,312.5747191668095,-3133.028637588851,1962.611870110912,16361.076441641902,1829.0861203853447,1400.5955714897348,327.9743972143048,-3090.1379912396937,2168.2480752510814,16460.722091702315,1811.2866416794448,1391.913046145757,319.4689304587066,-3188.118090760463,1952.274991031853,16438.629681543658,1814.1776493511998,1396.3122382782135,324.17320237190876,-3196.611760780976,1937.2710470493503,16264.165387720346,1813.1812568537955,1402.2420189064924,318.34090072884436,-3047.6062924737193,2058.504315091763,16280.320267104222,1827.0689674765279,1387.5978800344021,346.69561089036756,-3133.1609966708297,1821.6811028661782,16549.18817908004,1831.6154098676543,1387.390667299802,320.86078346827134,-3164.9455383171935,1876.0539630287712,16546.631008504562,1813.1474578636348,1389.8099947257124,307.94233809634835,-2886.940081346281,1939.749320031336,16530.91047402079,1815.6247954677672,1375.5375752012512,316.304039526001,-3027.1704564158204,1980.173070619687,16680.91547133906,1843.2396632139387,1383.7462743641634,312.4933265525621,-3056.164242076481,2048.7491630471754,16394.45550741222,1810.9382206144185,1387.5252007022211,304.1397394997186
-3076.0,2152.0,16372.0,1641.0,1380.0,354.0,-3165.6846557275667,2063.7584574354382,16121.26481592571,1627.3510055882061,1360.049359651007,351.27496429010114,-3153.5985119479783,2183.7317675535046,16354.040057104186,1630.3279053041713,1387.791164581756,378.9611374470128,-3138.0363754401865,1951.3430737652855,16260.449212927439,1632.0722791189853,1382.117610067841,344.8291552221747,-3082.629043196748,2180.2723168890648,16279.602742117118,1646.502301236512,1380.5118931010688,342.5779724547035,-3104.323168656691,2051.983162434454,16447.517006477534,1640.9797913183986,1383.4781518163159,341.6263029847903,-3092.7345185951854,2282.4270322083034,16275.819927213863,1650.3532611967678,1388.3044143992352,340.747554380415,-3144.916933565247,2214.4280555395235,16362.370347326001,1645.0473176099113,1371.0425645418657,346.105102408996,-3004.216719600855,2092.9394375564093,16390.65428328088,1654.2691872142086,1371.7608395599707,367.4426075836776,-3212.964839155219,2035.8740493010725,16442.03785676534,1650.2909660832076,1381.4112792504284,345.09999997788367,-3088.442563097864,2117.5826502453906,16245.46002828882,1657.986461688014,1384.165742714088,369.3585232300678,-3030.371682370314,2145.481394494767,16454.767094447743,1640.2550726797447,1382.910020427343,343.638211009685
-3120.0,1888.0,16244.0,1686.0,1474.0,354.0,-3127.5982268786643,1878.2852157718762,16202.371275951897,1686.8004856136376,1468.5842125695992,361.2508747841409,-3030.6122225556337,1849.3760042569938,16175.979326177667,1695.4297738074663,1467.1208717409459,353.80200304729993,-3220.1833111160995,1567.4779660301465,16178.804294895068,1668.8166931480662,1494.358858399521,361.19729609669923,-3134.0900608254033,1699.086695852614,16246.105745536588,1677.035674438973,1468.0750742618375,366.6511450744493,-3310.608969085466,1872.8734987848352,16208.12236475189,1684.9258281889297,1463.6575599343316,344.8883053898723,-3155.2977383965426,1824.7279438948508,16316.006026818064,1678.1769455674073,1469.3988192301558,350.4824670484377,-3208.7182163371644,2006.7779002577563,16160.642556942803,1683.1952673427031,1480.1275068536297,372.8532534526012,-3224.619609137175,1822.3878272534241,15990.537764060437,1677.8387662250261,1481.6437620110148,358.73966899997964,-3182.7240693748513,1945.2262912186482,16176.658301181806,1685.4558022798976,1460.9200756839261,347.1270099390822,-3158.9664481456016,1820.4971698362467,16215.26596476638,1683.615875160779,1481.7637741874628,358.88836643147164,-2961.7508848437415,2087.3051030349097,16280.785634489624,1674.7543072325532,1455.8659041225922,364.3315152890656
-3152.0,1892.0,16372.0,1705.0,1367.0,329.0,-3041.2713397031753,1881.926739765532,16429.822184981043,1712.083597230621,1370.0764112412835,344.5844581335033,-3468.254775665608,1806.7715763759225,16339.499869190031,1697.4339891747672,1361.8294544197504,328.9267450403304,-3151.8334026808902,1802.2358390682093,16269.286988281088,1696.8803196921187,1368.842626757771,320.4618185856712,-3071.914443388386,1843.9057423096374,16358.704765818116,1701.6280167170755,1372.001988620535,320.01637462583614,-3167.8127192790844,1832.4431627478646,16462.156296685607,1709.5765879771911,1377.1209492396251,310.5916654263159,-3249.578010044592,1938.50738952583,16389.469769449974,1692.4650194393842,1366.1368930580893,328.6132764726857,-3114.057017344078,1846.7107785191447,16284.219584539314,1721.774697204753,1363.7630643052478,337.89405181279864,-3116.915566238176,1986.8064801276355,16374.724018856923,1702.453003097102,1368.8456278171282,303.8008249343185,-3077.421117542324,1770.7682496319953,16502.034939469082,1701.1239949543126,1365.5561633011669,334.9283197669104,-3044.4698633677954,2054.6668848790723,16365.955176572166,1714.3759394487445,1364.56632180396,328.1032641764083,-3069.61600134868,1881.6006987135074,16256.510220945196,1693.4283035231829,1376.2329861025667,327.80815394006726
-3080.0,1788.0,16192.0,1719.0,1389.0,302.0,-3162.351291282921,1746.206400608249,16216.73599967006,1711.572569026164,1410.1876023046757,315.78046778242265,-3194.3209142743226,1659.6239858713989,16009.646424845527,1723.6071174594897,1388.9954467710904,306.2388402944439,-3102.6119121140887,1643.711151996639,16249.562463363087,1724.2652805505072,1391.8651107213584,302.19229289245766,-3198.0755475114797,1692.3902377514225,16274.51155912747,1725.2537520728292,1380.5651717037736,291.2300510599526,-3111.133145017447,1833.3363414198834,16148.0605711429,1718.6477793072504,1402.9163205017082,311.95516883046395,-3231.7735610825493,1771.6129970465686,16220.977348297069,1723.8831355121974,1394.7355743256921,303.1001406386024,-3159.0190389139834,1789.8552816742995,16123.4379792965,1727.4395975733719,1407.5169759857135,303.55642901282266,-3045.842343169735,1766.2531587402623,16075.132068372977,1722.4982287912735,1395.608117805695,294.5616001216338,-3063.475376398212,1791.6126488172597,15932.916582051654,1717.450296123289,1382.2455142719452,309.28051427043647,-3066.479027097942,1849.083512455191,16153.150515459016,1716.5583209179097,1370.5825906530115,300.8474026458549,-3226.252097623967,1738.3392262053844,16202.839644647967,1729.387915116292,1402.4016147077887,286.9557990626766
-3160.0,2064.0,16368.0,1797.0,1541.0,339.0,-3004.9823860419497,1939.738151608692,16296.69187967737,1822.1162965379526,1551.9990253685403,343.4397064233433,-3047.9508109486974,2138.764966310744,16094.13097795834,1805.203409135253,1547.6338282858594,339.23197837731476,-3147.968350735547,2208.508473468872,16344.176171081743,1786.5412904906743,1548.4372042301138,323.86270440026885,-3285.7583721763663,1984.064704647611,16420.057596761057,1782.2083918957526,1542.09684147796,347.4203010068072,-3097.940497381724,2247.0969863088,16471.12627598565,1801.607098926154,1550.1935418403161,351.7718399829089,-3160.1590963138806,2082.13531347766,16388.521120281606,1808.8732610901197,1547.991436409698,367.30473871359516,-3153.5816913833078,2085.443061535882,16395.618484263738,1792.8897708871853,1542.5309650232778,323.5225251206425,-3337.9677360951873,2084.571802041777,16296.614263007066,1812.1813241802538,1523.5170947709719,340.6957736269857,-3166.460161664041,2057.7148357151523,16562.441950408054,1793.632747047586,1551.5178399453441,355.81908072518826,-3173.272813492971,2139.0455879070705,16194.327878135031,1787.952559310233,1538.0618611374678,346.8685006245834,-3304.240053789083,2150.580855482996,16361.205985831666,1790.1206728494128,1532.5048944348184,330.4216626117962
-3224.0,1980.0,16400.0,1674.0,1463.0,315.0,-3294.3556275668784,1806.8559305651825,16350.065757494365,1683.8832464136601,1458.9899307997086,290.9710611054889,-3244.1997634314844,1987.5466028142323,16426.358631676452,1675.1589858178677,1461.5671966388402,320.9986063414916,-3345.291245713326,1927.091603196278,16407.799154030523,1683.6168907392102,1464.9459063190163,315.38295200292885,-3292.778063034763,2030.573106634447,16431.096553059757,1663.4316412831681,1465.893286953267,329.21301998869285,-3358.139647447049,2059.714876751527,16335.250024596276,1683.2990282909827,1479.4597286314995,328.3824780072462,-3424.1366121208775,2070.013038896729,16482.36527953298,1654.2683273133962,1462.674183169116,334.9839122837107,-3226.144854075524,1973.2769681025773,16418.50310208495,1669.3482238389402,1456.9314640246023,317.7277455128598,-3164.037363804754,2115.981006320429,16422.69688985365,1688.233827416778,1485.8096623156987,303.43555335396127,-3085.0825929982075,1979.5220850620433,16214.83452236837,1674.6573373259025,1484.734311531189,310.84343785109655,-3270.725680936836,1862.649133902647,16311.467728704616,1674.7774913803055,1462.3738130473755,315.6204431250281,-3270.4063355481962,1896.5747310923207,16288.972917848661,1684.7508155916983,1463.7409772581211,320.1228689881809
-3188.0,1832.0,16416.0,1812.0,1441.0,364.0,-3305.420528290386,1759.054467341121,16536.409599744497,1817.2690512661618,1459.8471553246477,367.51141802656946,-3135.5272428626276,2035.787767050211,16402.242159890084,1809.4234637002687,1430.0873777150002,371.27703881429295,-3072.3565109213687,1840.1025292089803,16398.156089293207,1810.6126836905437,1450.0182962940485,361.83632795877395,-3155.3766745338507,1832.9991689794654,16380.221968292335,1820.7031062785995,1430.971898372965,357.1009848358313,-3228.128065376095,1793.9307926631418,16300.025852675013,1803.4249231619942,1447.471244196849,369.6612403132275,-3205.941992893539,1842.23485734834,16244.747447012738,1814.158225174265,1442.3516013611393,356.7012128421837,-3236.7082037029036,1805.3553101942637,16358.63025422632,1805.3526584709357,1460.3562622257398,359.4495600196054,-3298.3539195335916,1677.6767275430586,16387.281462812738,1812.6719101178257,1451.3241371691415,362.0300243068385,-3281.1244802256942,1906.2481545223907,16451.45186484101,1808.9685040122235,1468.1847793488716,366.005162213388,-3317.2984845086157,1923.8536887098555,16288.652693027214,1814.6372021005366,1436.3436136464059,367.64467805839246,-3243.366441994475,1896.8627419999552,16225.956233654,1813.8597480153744,1430.125883948475,360.9872852002046
-3084.0,1928.0,16208.0,1702.0,1417.0,227.0,-2907.693876999263,2033.209167074229,16158.836811500365,1714.0541179608733,1414.385162357807,198.60148049635518,-3129.625224667532,2121.3752484262636,16142.121640143985,1696.084910640612,1421.5330041206275,234.42971716843192,-3073.446839646188,1797.1097652419805,16017.322528807777,1707.0426319327971,1426.309526327337,228.37057931847096,-3209.3276078461827,1899.3781730868045,16219.697496551496,1700.5401695198802,1425.967763623206,229.25718345438406,-3093.8049587541127,2068.9457403816623,16102.347050149074,1699.6793979672411,1419.909850634654,240.17232298226892,-2972.8382531921084,1890.6133606391086,16147.974946279888,1676.153825957833,1422.1943102311586,213.1372562538614,-2884.0045423227184,1990.3902905583427,16073.577543382156,1714.9127812867596,1407.9648168229862,238.2361679074024,-3139.8765439586095,2102.317429557559,16171.268670880312,1706.5685903011884,1420.0918542128504,238.1755845754542,-3187.7659376542383,1815.458840774907,16209.311869265242,1699.6456617121548,1414.3616582152783,216.77227142920728,-3173.684916870905,1924.4306881229816,16297.53935548541,1715.8546790633775,1390.9566549023064,239.63892691886176,-3078.0321828322826,1785.9254110542258,16343.62664474666,1695.661588807208,1428.1353370210256,226.4656893792412
-3080.0,1824.0,16360.0,1662.0,1554.0,235.0,-3140.729113291384,1667.110803847455,16237.88991617079,1657.6113403201275,1558.5127504930936,246.71234125826936,-3092.104371800931,1817.8702327855722,16146.369214759707,1668.2920785088554,1536.531815765052,243.34307081185318,-3013.824740524952,1777.8369971893233,16280.360995482903,1645.5549639673914,1576.0322798156262,246.02681992209048,-3259.698741438214,1991.3183294706766,16437.756580976104,1655.541772138614,1552.180297932272,235.08857356301053,-3135.130483830155,1903.1865457154465,16304.249600657247,1649.878174303252,1563.8441225765887,235.9286489069308,-3112.586893002383,1791.0789015761475,16260.704917117935,1665.214644466195,1548.556909416055,232.77869531832903,-3117.7209321260893,1785.812416642938,16348.409665634168,1659.934760974269,1560.5221728454521,240.86404632086328,-3053.188688345096,1781.9974088590332,16396.263678953055,1672.5854648297968,1544.98069583508,219.54156003353097,-2913.6334663075804,2059.019494560646,16310.187415440225,1668.2439611007846,1526.6846108405455,231.36472106243536,-3072.711695775283,1672.8798056265157,16381.725036425041,1665.5262407155446,1558.7769196922184,249.64258479360606,-3016.1432311142057,1707.6178623622548,16398.481999394833,1653.0502818275233,1558.5304491565437,228.99577557008686
-3080.0,1828.0,16516.0,1791.0,1552.0,378.0,-3048.9369705393847,1902.487288740132,16211.379522934647,1785.5112872382927,1557.9174228058798,381.2268874965414,-3043.224545819256,1652.256768335509,16627.516839748467,1807.5414625126616,1529.8050858056438,376.1100374021456,-2983.279657081895,1882.5951372841853,16555.322690023855,1783.5163984281007,1562.915638731693,384.63414829022275,-3170.107463430002,1717.6354152243032,16417.124486243847,1794.6959847841401,1555.7505099857826,385.01077249088434,-3168.2590752364813,1826.685873224304,16503.695077566506,1792.7603258431993,1560.9837131400075,377.08458358091684,-3108.7857532583603,1771.08882531625,16426.403005377237,1792.14248830064,1544.6121327454446,364.09832585993365,-3266.4586476614195,1911.8484043539202,16575.469350263516,1797.4046881131462,1552.5279269286,387.39452775564115,-3006.5103101875566,1642.6764193874935,16657.038577954943,1795.299731904604,1545.7001600354108,386.63051559322184,-3002.3608649781595,1717.2855893853452,16418.134364212343,1793.4085162867214,1569.5511208030114,386.2802772853775,-2936.353184859351,1964.5342572363961,16386.35820373938,1800.7159190054022,1548.4788195488275,382.16415503979425,-3168.755670363894,1921.1851572936578,16629.61632041761,1802.937993233512,1545.651520641478,381.442473818705
-3160.0,1876.0,16564.0,1686.0,1449.0,312.0,-3278.96459565512,1862.1754231073223,16569.04320609791,1692.0530159536333,1442.4226259505278,314.60085868576164,-3208.1845623312734,2004.7647923368067,16503.050629380163,1660.2190142980558,1452.6983766490434,310.304885776901,-3244.4077781244023,1956.1303528359974,16551.837118958687,1688.0508867846502,1451.249194886581,314.8740368647524,-3152.618928587399,2078.492270243901,16622.93513244242,1694.3823113870567,1461.772369901636,303.14419630726456,-3025.156043976499,1817.7403546527964,16613.459595241293,1694.2684784437272,1455.1953019046864,310.5917439924516,-3230.7940716428943,1957.8210347234947,16772.225236490714,1667.9296420617816,1454.9716649202385,316.7568515247689,-3180.393042517104,2079.439640430182,16717.131491255583,1688.227605602895,1454.7139232762124,306.5042221968996,-3209.604911225188,1818.3199841527594,16572.481564471407,1680.9210139787622,1459.8084157561327,313.5968560636048,-3075.932195887133,1836.5621367542358,16591.60410821213,1677.1601982125794,1439.1679677290194,314.40410667561906,-3133.3792859165956,1941.5498045577256,16441.739777091498,1695.2722280009568,1448.0810351547398,308.32381921518237,-3083.69041756775,1826.5801970057382,16373.751477255057,1674.5848344777087,1444.3493584843213,322.10659557275267
-3092.0,1808.0,16576.0,1613.0,1412.0,256.0,-3124.500122704729,1721.1179009137268,16639.6208957152,1604.55479235996,1417.8819843196811,232.70836785019193,-3108.2187955339946,1529.7869341079793,16607.66391441386,1606.4605603014847,1407.8279058935752,257.552601424868,-3263.827357240491,1810.8520246814057,16492.129864264112,1609.8141647370935,1416.1917903708174,246.83542210004282,-3092.8193807041916,1642.563751013245,16492.316989941384,1618.886704082407,1427.8799353914014,263.6579814392239,-3040.1139709049444,1957.5976053164964,16651.040478848237,1606.5242977781304,1418.127768820869,256.73561093892994,-3195.597769827795,1605.2284122390192,16615.19536198507,1635.522638096887,1425.102105289296,255.21301079181026,-3144.9227881465395,1878.921657593836,16706.201200962456,1600.3694751737728,1412.133855161998,259.84593157368846,-3232.6123182407505,1914.1072871667895,16602.1372580798,1608.6177941362587,1395.9363418122255,245.26183395893463,-3131.0750292950397,1905.9758005554738,16802.239460288834,1618.9470350766437,1411.0825445763685,253.96196100025787,-3018.113627385782,1965.3302154834073,16569.679773427757,1602.9514051551646,1412.9082802058233,259.15754371543784,-3021.214312815834,1733.7396582562817,16658.93722481427,1631.1588793588792,1421.2485939556743,262.3677287197023
-3148.0,1888.0,16488.0,1670.0,1470.0,147.0,-3129.003195224849,1925.2218664472823,16470.99503600224,1676.9344761291059,1484.335455615693,136.08290662491441,-3047.1067219177858,1848.9722694219151,16485.40580331012,1691.4501621560523,1462.2993918047018,160.16615958202902,-2980.564127460902,1865.6116806068908,16451.058505741275,1658.521010958409,1474.812816517155,142.56026928579354,-3081.851171950073,2068.3466028798985,16543.107521050293,1683.5247500978,1479.1003633498167,151.23706430610397,-3228.7505298342835,1843.9734242235436,16570.468587354484,1673.112756378227,1466.2616376441672,148.32157557665036,-3158.25474941534,1803.0606968636187,16501.80661218487,1662.9793662208178,1462.2709527226982,144.6138809610758,-3239.4859113244656,1935.9124881451196,16457.380473627185,1664.2185737910897,1462.3909148523421,133.67667102295383,-3065.335253064476,2061.955846834827,16459.74410421161,1676.446246263413,1478.8623635323124,157.12262605756126,-3092.2936544792847,1859.5173628977977,16598.42354497557,1687.394032244544,1469.3235191202614,142.23437325204281,-3117.7636660181174,1946.2711714376749,16395.937914210077,1679.0339794156284,1471.894116775845,145.99469436108436,-3006.7592888330205,1901.3405357824468,16644.708802283258,1673.742484147666,1466.8000732326275,134.06338177463658
-3100.0,1896.0,16648.0,1668.0,1470.0,140.0,-3101.464932959771,1971.234181580821,16686.054415637336,1659.8778510421218,1464.0442768179112,138.9992474295988,-3101.294332754131,1916.5355580056937,16705.31528024166,1667.8139134730961,1457.0104462669985,134.345614327602,-3032.5543599007538,1735.9433480404236,16773.335616698616,1665.358868255233,1482.1953483423397,137.5578300945455,-3161.421097666647,1789.1749011852662,16614.526589549027,1678.9502481865616,1467.2195756399376,143.7794451975487,-3078.830034048687,1747.3819375328067,16661.566582234318,1653.5317462785813,1444.846931274094,123.02766824253092,-3177.909253663855,1816.3640149371624,16826.650166430223,1673.169438868666,1442.5973412767798,170.8504070851916,-3141.196841553133,1831.7544570450918,16545.08546990769,1660.465126035233,1462.3089827489448,138.4368957823894,-3122.8716689609337,1939.9891614690887,16684.526412272808,1693.7511229038214,1465.373374202027,130.12408501116383,-2952.191747540849,1816.3232399864974,16494.537993364655,1667.6920957246623,1471.9703780553111,159.9589993744545,-3259.382085782162,1842.7184010966585,16855.434191361415,1677.7086194793578,1485.2891197257034,157.12720970536685,-3095.936942878336,1819.2206916572059,16713.275529604183,1683.0543043832836,1457.4786653809342,135.51793727007023
-3324.0,1892.0,16656.0,1662.0,1356.0,179.0,-3430.098287451573,1843.5948028993546,16690.476951387434,1674.4077212383759,1340.4297589696828,190.41144170027204,-3206.459172218383,1791.9240071395145,16543.198620468665,1671.5225729481926,1367.0992224424926,175.66599659084142,-3425.1220323825833,1832.7168780058296,16533.157607635207,1646.1737002622747,1368.8124466121144,163.24811389324745,-3404.5407819322295,1834.718369352759,16674.76160918145,1658.2331538257015,1353.5741836751006,173.65608685622146,-3493.3801999125935,1773.4384890354686,16772.44007506744,1667.764481226995,1361.8072359430048,171.29254422579524,-3147.847480355707,1872.8787274413737,16558.47174511271,1656.3849773853387,1347.2958129590604,183.47007496729418,-3382.4786863256936,1917.6677501248876,16652.490162067526,1662.7850254775967,1335.3310226337985,173.20726925919016,-3387.517204343935,1750.4963382398125,16774.128120783927,1670.6621629232852,1341.4434766500717,181.5303906789953,-3289.334480127541,1934.4612913235765,16659.441633374343,1670.5658690371545,1353.3427732471002,190.27219949193812,-3257.143380934859,1813.887795117832,16671.01661657886,1649.0972101207653,1368.5228534712428,191.88832367962928,-3235.195980481337,1829.4392572980487,16619.160292721674,1663.482942064132,1357.0993586397908,187.398932042678
-3276.0,1916.0,16540.0,1842.0,1362.0,190.0,-3314.505153378245,1918.791457957065,16564.875805287335,1827.9117716347487,1350.957750549946,190.01643395233404,-3249.4302751957443,1920.8074521341662,16514.057155465285,1845.1817013958757,1366.5368719663072,189.1955006942618,-3325.988429604859,1758.5050789576928,16393.074126308005,1817.722654060324,1349.2259863007814,195.54192148113972,-3380.900978738276,1883.030712231771,16598.481714520985,1845.4555092832147,1369.13532580064,180.3666197071632,-3306.8952514204234,2031.340904502202,16509.212425594167,1841.6783253291965,1348.2126940200494,189.86852586325614,-3259.404823814893,1798.3148963363226,16638.576179356347,1837.1969366616117,1351.940897635875,195.23091815040266,-3345.6602925472675,1878.8234551623793,16661.15564863871,1834.8358400681002,1362.7135195922244,191.17929510685664,-3244.4633786047225,1850.4178597098921,16458.150400856506,1825.0948483640664,1360.88851236912,187.5252058503223,-3247.0360240224327,1831.931581645176,16588.588821489655,1847.2698399116005,1357.8910216338268,190.87872472735805,-3291.8106004442325,1940.4220964640506,16541.05064145277,1835.222689651583,1357.4720481061495,180.40060405078097,-3498.780151546557,2002.8996345003761,16455.203227699923,1822.8336394996595,1350.9351466941791,199.68283757723523
-3124.0,1976.0,16568.0,1872.0,1527.0,164.0,-3327.6196292814943,1942.4832736318976,16692.197122632806,1888.9605150854557,1553.577611508132,164.5435681080068,-3209.1199877438885,1932.4557934803993,16615.235595273745,1862.288828774448,1521.7321105677654,174.4819014168213,-3017.6458529129454,1875.0346558452445,16643.703475455102,1856.7946090895564,1518.368266803176,164.75471614114556,-3221.9152124422476,1901.7768001818242,16499.629030157816,1876.7169029266354,1527.7181788614303,155.75773928773236,-2994.790150713241,2075.182398303408,16641.161941159935,1879.6368476522728,1539.317816812092,164.60295470304365,-3174.6312303119657,1891.1619374807988,16429.78470227308,1877.0382293440634,1521.0092780779978,178.76510774232221,-3176.237744473233,1978.0468150553652,16591.43167231785,1852.605795558659,1515.433865491143,173.08111021951208,-3056.726305791227,2019.8842743876783,16577.325358835842,1874.1479562639925,1518.8402825418038,148.47756456079696,-3221.2149092109144,2111.8521125398433,16290.334012152121,1876.6354994211765,1524.8178058438718,182.9168451442083,-3181.2670958970625,1987.1441810392987,16447.378835095402,1871.2599586550705,1534.6157393268804,172.5811308420301,-3245.7649720827717,2148.320806984122,16441.628423711394,1866.8661522342868,1524.624799706823,164.859776011165
-3256.0,2048.0,16644.0,1678.0,1440.0,231.0,-3121.0489442273324,2009.9977274985379,16682.797844526336,1675.27476314676,1439.2893615166847,236.99152533476192,-3204.540950537548,1989.0806043666876,16696.621717698643,1684.6038198486924,1419.3213992178978,235.9864830304457,-3179.8282614400723,2144.655036878843,16666.983532671482,1668.9463105329137,1443.6711977661982,248.53574803225797,-3323.7020626799717,2032.6847323531827,16674.031153368836,1674.2294534650098,1428.2822770443177,236.71402439338303,-3107.1116993153582,1942.0449542122471,16827.339469916078,1675.0078582755118,1437.1599695591335,242.14352193595408,-3431.4352773668593,2153.1149351621034,16543.7712356319,1688.596545200726,1434.836253927171,208.6610064357937,-3251.172792350544,2020.845961836424,16752.87329146361,1660.0718570769204,1432.7212705558134,238.15358778440668,-3230.1722232921134,2306.153192445892,16701.335809132062,1686.6838818574035,1434.4888760281067,228.26616058049834,-3548.3992606916813,1949.9197198968097,16662.96745082918,1681.5438366877952,1441.8282300290828,244.27872126751947,-3368.4816159383063,2138.4730074186837,16670.512469959933,1689.0636420523967,1459.9634009782117,215.4682560557986,-3291.706601455009,2073.926202460966,16556.323669026668,1668.021097994292,1448.61284032878,218.15721402965573
-3188.0,1948.0,16672.0,1705.0,1272.0,244.0,-3113.935826201369,1986.0775456542347,16527.931913519653,1709.2187983771325,1269.7801646486157,251.89872717577092,-3173.7060997742706,1902.4303239370581,16697.959879138423,1704.5555774618697,1276.8209434826276,239.53974792228271,-3307.7212663635037,1905.488889604397,16701.11754600141,1712.1861858387854,1259.7357077729118,251.9656604104029,-3075.952489469416,1980.5050980846113,16608.7258890217,1715.4712610427287,1246.920500347342,236.9213433774056,-3129.0658257251753,1826.3494285845195,16823.80980874627,1722.883562081655,1286.8897524305278,262.1186273767898,-3167.5590333030223,1879.528866170148,16523.750659483485,1728.6730034716877,1269.8529691195793,241.73649413847505,-3138.038106888108,1915.030260373608,16666.164294582504,1699.6810389635593,1287.553328718962,246.59374586146663,-2988.8043898351093,2015.7586522512447,16660.46278236076,1701.5407137988527,1275.8612672131767,248.19343615398807,-3013.491172792923,1902.2687345916215,16642.24159759183,1692.949336865428,1281.5480905567606,234.90961747804036,-3237.7926778197393,2183.162509708803,16609.90362786125,1687.0118938424441,1273.5233307835588,232.76746841706876,-3266.8965246433513,1940.3493718329137,16533.632911651206,1711.0270877142877,1281.7544595763388,266.8791716175157
-3160.0,2024.0,16616.0,1774.0,1233.0,297.0,-3072.0780532410918,1876.232916024217,16675.50978093426,1786.8108680111623,1232.066863494317,298.07999567451685,-3121.3727275359315,2067.44392856229,16656.692391839948,1789.1891029424926,1235.956943057497,295.8614011680497,-3170.114523077839,2049.953042296515,16728.13276876516,1781.972197190747,1244.300412710643,311.4574753586527,-3103.4145600489096,2228.5859425224644,16665.479626863034,1775.877547334348,1228.853437036097,291.02728912295424,-3262.9228818736547,1904.4969041393815,16521.57013870406,1779.3171079838467,1220.8828102504137,302.7498568716708,-3244.4078983306736,1942.346209526522,16544.12821971216,1758.2347149268508,1229.4275464284945,290.05723280432505,-3014.184545552574,2013.6829965412558,16562.43258013824,1771.2865997123206,1227.8895007975536,291.7161081143507,-3246.6340073207853,2036.5140693338483,16622.189481084646,1790.1290314489452,1231.270869159395,291.63451026986604,-3299.857553694605,2129.9703519064046,16565.390053909116,1782.5720978454153,1231.6568402182247,301.5450051943398,-3318.0806369044635,2071.1649204039923,16820.631402363633,1769.7147814794428,1231.521366431877,312.9540628297757,-3162.252030661192,2033.240670340923,16680.816769700596,1775.2668537810896,1230.7368165627415,300.26334771733315
-3232.0,1924.0,16504.0,1640.0,1211.0,249.0,-3225.5737197393923,1886.305588346299,16405.714079560166,1632.4001134471214,1205.1792103605635,275.25944219227733,-3357.822120339494,1795.126667243708,16412.750252759804,1638.5341297848174,1224.5525101323635,241.27360630375156,-3378.897658277165,1833.1641056405238,16575.742250153093,1645.0461842853297,1209.302769459909,251.35267759849717,-3176.7351775024736,2023.5037315954537,16514.30119351903,1657.9625815958084,1227.3465141644238,243.9772827365831,-3274.4825286243745,1827.2271980804985,16567.316585403994,1659.3917886035106,1222.1591743218905,235.98384189484156,-3369.200407676586,1974.2631586489981,16574.944797989698,1646.3503990473844,1211.5526930990293,253.01053065101638,-3067.735802387905,1957.9340437987294,16585.501206494086,1652.9824282861903,1207.9472966640253,225.79669144907513,-3496.1592776218768,1896.3532589538163,16592.577104906733,1642.3170923933553,1201.333915729205,257.6945263541299,-3101.959229293513,1859.051125196807,16444.0910164996,1635.3657159863449,1215.2566692710232,262.7919772010664,-3417.8263381232373,1994.5781794992824,16755.31945701608,1621.4924475208134,1192.3969495416313,257.87146856520354,-3187.6863382686665,1922.6430910060753,16618.547317632143,1646.6918189305604,1205.3211663041707,256.59665160251757
-3136.0,1880.0,16536.0,1736.0,1368.0,215.0,-3078.7797200016735,1948.5964160859717,16556.275338390984,1743.2812173249445,1365.9044731050453,204.96840016746103,-3053.126250965883,1926.3291527873735,16678.325752976452,1708.7125263225264,1356.3475409606992,219.850489025334,-3059.079232909925,1848.6692218585213,16564.45442493977,1733.6618875409795,1385.7651875474469,213.75621849803613,-3057.0233625494698,1988.164551970561,16680.575561138376,1735.918502381872,1366.020610575682,206.2478904997047,-3308.05177088691,1876.796570510017,16311.94543583939,1717.6577184918608,1362.8156939208423,210.2360462079626,-3233.9609862596662,1899.7151676417473,16451.468302383764,1733.623100846979,1356.3350119678346,219.53694256647606,-2941.597765057587,1939.7039098506464,16663.641499913345,1748.415311088994,1366.2360959908005,216.25195088430925,-3133.184643491616,1923.4806518156868,16488.885311655016,1719.722669892598,1363.9001574949189,216.52869601796198,-3219.901756314113,1938.3401152815156,16687.766848659652,1737.5535967079102,1369.1446897231544,205.2157708565104,-3146.17834198859,1710.8319208732123,16478.735219148944,1742.22832940893,1370.1946662441103,218.74540397055554,-3171.9008884518357,1817.5689390940138,16542.44442435497,1741.9980513171204,1367.547994371147,209.36315373389556
-3216.0,2144.0,16588.0,1754.0,1379.0,185.0,-3287.583720417441,2164.8564096134123,16634.32502725783,1757.2153524854969,1381.8937069744095,180.30990118769074,-3301.6554345232685,2265.964522457324,16691.064519276115,1765.4109368241518,1381.7576152655076,190.44278279994992,-3234.304731316993,2045.5659060264948,16644.686390038984,1755.7955561260985,1380.5073624191225,164.92989545510395,-3217.929487798605,2164.458338415166,16422.234337689624,1755.6566684898416,1373.343287386511,178.71147323668708,-3295.491169229496,2262.1626606087852,16724.562718488713,1741.2931770705345,1358.0227341566342,180.5893249952856,-3205.7515974176254,2026.6041469982113,16670.21837118775,1745.478187437115,1389.2397659763144,187.8544078317531,-3119.4901677013704,2157.7479406910547,16552.844915753267,1740.928158132031,1368.166542705785,198.41679396814274,-3255.6947562208334,2345.789542531436,16616.8136712891,1751.1800968631972,1379.8592468715772,171.11177717477136,-3100.1612054054044,2224.353596662897,16608.79323705384,1755.707854506601,1366.2508559439907,187.5238079744769,-3426.829553256191,2085.2661318786845,16700.484159007516,1749.7688568345964,1392.661607768179,190.18298000587382,-3188.3406092651576,2149.3257866519566,16632.681207052807,1759.6370557629987,1357.5157183554054,183.22366839266243
-3224.0,2080.0,16644.0,1640.0,1234.0,244.0,-3054.0914404413643,2048.8930888030823,16664.55949801725,1640.4463042871478,1224.3685390713465,275.67630054784746,-3083.2443659273254,2104.267837110336,16816.80958091739,1635.961826437613,1216.450892238447,237.29497887800468,-3173.525647227404,2112.546884724995,16557.763762743998,1638.850317666164,1217.8969796522915,241.7346464113405,-3232.9615092258323,2036.082575992193,16664.081544622644,1621.2481712526287,1221.0874345111777,249.44694543114466,-3288.5115679636965,2065.6908870266398,16731.334261151387,1643.2519323126187,1234.50177622434,238.28497998455188,-3230.9319815081103,2080.826042897018,16541.407447578804,1650.3003464203537,1232.3778645847779,250.31769911394585,-3036.193229921969,2101.0946363545363,16886.839314639357,1637.4613819624321,1228.00654265489,251.56532223798894,-3367.0024816791693,2087.7345518284833,16840.317462166586,1642.0748141639692,1240.6606435773397,243.2112599833755,-3190.9563737863946,1813.8327226070917,16752.208440261402,1649.1385145846498,1215.3996489040683,250.62480464445082,-3166.021396127007,2008.9949319366117,16707.20999258097,1632.1573243497692,1236.971769018136,247.09883447703572,-3126.8548222458758,2051.352721029406,16661.95938330939,1642.6304771490734,1225.3877147859964,249.96950896895262
-3168.0,2072.0,16640.0,1784.0,1234.0,257.0,-3272.801817557365,2197.3156342284256,16430.31954345199,1785.1852966448973,1244.2341758579303,255.90620823341322,-3129.5566288592827,2077.174038676801,16700.239949710605,1784.515964008041,1245.6638675768204,252.63895061199628,-2934.4953771168416,2110.9504307151165,16616.81032130715,1778.0271647068093,1233.0399483125925,257.46784501381296,-3075.376766764026,2105.882366399195,16659.041859720688,1769.323346929757,1220.2950633335763,247.78535304575507,-3086.758202367729,2103.1198028927365,16617.41414102293,1797.7060638104463,1231.8917297788876,274.580162786272,-3290.3002269619656,2099.9897790172004,16679.22273650906,1771.0636431573612,1231.8379039066747,257.1557623399694,-3230.140358379475,1937.579602193214,16570.844484579025,1773.0675544402463,1227.374776076946,229.76838470699147,-3013.1922395636943,2088.7951967680874,16485.587634161577,1790.5826995196373,1226.3563639919716,250.4490060463816,-3153.561570968019,2094.3017348605704,16646.12195959901,1786.7716220372668,1231.3741969137368,251.8596780132438,-3301.533335847537,2366.260172202886,16891.714222976567,1801.8136680825928,1231.96134456214,263.2513559760624,-3273.800429801086,1978.8234765127386,16641.054144141523,1798.1978395199164,1230.1054338333217,252.82025629711114
-3144.0,2092.0,16560.0,1722.0,1294.0,289.0,-3249.913699123151,2029.0960087561846,16464.9207947956,1723.1251592918331,1296.8939751027617,300.57339705386954,-3106.82013311718,2011.8515907560138,16498.3638795022,1713.8769881932326,1300.4130246198276,290.0236897495155,-3193.797722534787,2225.570792724727,16660.01845270264,1725.0054101422927,1306.826970755444,279.6078694132472,-3131.9059236647813,2144.4519109480857,16672.517026782938,1734.1112043677751,1297.976995874029,285.7354538832685,-3303.5140491805387,2278.069935841469,16446.88612205664,1723.1483905204905,1292.4911450727072,277.90425262371514,-3237.1625813501055,2166.4739549074316,16459.121120118394,1719.807402291418,1298.5292559290635,288.15873414859584,-3140.5867942329587,2288.127564222892,16519.639932643357,1702.3830859495731,1297.4703042140134,309.0219120844015,-3153.3375154880623,2153.451060009597,16522.019558833465,1729.78368771139,1289.3221534728561,297.87953942822253,-3418.4071582003253,2057.3561214379747,16454.23120989237,1726.065715322783,1292.5590566712165,293.88979842382275,-3379.1008699041345,1945.0472575163953,16507.932243761203,1719.333289473313,1283.2909245088651,272.1407418476624,-3119.8305189229245,2176.0552787265015,16690.456526629623,1732.045706270611,1290.231096977131,284.02606949805454
-3108.0,2016.0,16476.0,1700.0,1233.0,374.0,-3031.8953748391914,1813.0166203443512,16528.053877925264,1706.4396839946291,1249.6551583931353,373.9202230645422,-3051.681217530558,2144.749690822985,16519.573665603162,1702.2774167088132,1223.9240000221535,375.8974036676657,-3246.1731463359915,1982.2303446300868,16340.95340308984,1695.9928970745239,1225.21983108006,382.39850598869316,-3153.886027690437,2038.097553455288,16499.434828869806,1698.8892916242025,1240.3661057053173,380.83991646777304,-3089.445774156585,2043.997685491342,16486.17829378266,1689.8885978040132,1228.2949346544663,376.71164538284995,-3222.946883185139,2010.2928016993922,16359.403203638552,1710.1033529032222,1238.7091191262166,372.6757589115971,-3251.2093946237787,2146.061631748446,16465.694116469258,1698.2489439177607,1250.0317016313406,370.87700164783,-3119.236853131483,2045.903326677457,16520.072792030373,1702.5335044966137,1232.7876435259714,381.8759222729559,-3075.273931534248,2040.173649767356,16732.615220662297,1704.5602951213884,1232.9120607672508,367.15555522083486,-3011.329959512052,2056.6268362492174,16503.550640292804,1700.6250465678763,1243.0195343047944,374.6165314102139,-3126.6447599624075,2049.1590629299503,16498.619243231897,1693.7887680765475,1238.0689982424622,369.88190357431967
-3020.0,1996.0,16400.0,1665.0,1262.0,322.0,-2921.6974328127853,2017.3905628989937,16440.59077973491,1661.6105495540858,1247.2599214338572,325.760670937023,-3032.647932463397,2010.7852320858378,16299.105915554917,1670.8303703172974,1278.7496695386587,328.22738331673133,-3015.7240492085853,2367.378966129677,16295.88452455419,1656.7324324993856,1269.285659799918,333.14598407280624,-3038.761098933319,1997.6282335216322,16315.947749324198,1665.7584333342982,1266.0021904059402,323.5531223195898,-3032.8415525028404,1971.8096973342979,16263.726950091932,1674.36004972524,1270.1726629150546,320.6591426251016,-3080.9751807117254,1882.314844090949,16401.366391064454,1663.6894887891071,1245.8036056041562,320.3401967951183,-3207.4520293315363,2116.5605236025376,16320.922696006817,1670.5362637916753,1252.3276511944446,315.9170564020948,-2965.8178199183308,1836.079067467098,16406.451893805814,1674.301298548403,1256.2790717953367,317.7607136420162,-3321.982421063989,1824.1292257752382,16551.860197074326,1653.0707217338827,1252.4480814176245,331.3984957420468,-2991.943807452469,1936.1560818382522,16321.235222007941,1668.0246191606814,1266.6645210273557,310.15377088840603,-3094.4055701808265,1907.097807639353,16337.555880569449,1690.6695707693912,1267.6044431570674,318.4528443139921
-2992.0,1832.0,16396.0,1758.0,1304.0,386.0,-2863.3038416238774,1889.5218995069026,16292.362013534423,1746.6393764901177,1281.90704734414,382.67934627325684,-3044.0474801882287,1935.6576581364618,16319.397168710331,1759.902581706865,1309.1391908187181,381.9476337294657,-3208.918110701709,1990.4370149206507,16504.28886781388,1767.8031488966008,1305.7639496099994,391.68784227715037,-3117.1548045742893,1767.89765518174,16265.630833772437,1752.7771972036533,1294.958498253208,379.07452062292236,-2820.715905798223,1713.8856760397796,16513.74405543671,1760.4818009357082,1303.0767043119947,385.5995008128496,-3115.476209364538,1686.8310815797186,16438.029946283747,1747.2352937607568,1289.2003854400054,375.3708457547503,-2968.5475422637,1858.4426373800686,16177.707737475113,1757.9029950622387,1313.1667418374916,387.9537220719724,-2919.0721315902274,1859.0570161989467,16582.878312350058,1733.7663345637975,1289.3682064590644,388.3558763303218,-3034.6338515964967,1771.1579271145586,16358.175926566953,1779.2131278596153,1316.5883658267783,390.8671771894133,-3007.2746580612916,1845.1873517271492,16517.564857339996,1760.5200650830939,1322.013767971977,398.85787049060855,-2935.6887320205155,1702.7342170127633,16417.93632695602,1762.7675774805246,1306.8825416688499,377.3273853109536
-2956.0,1804.0,16368.0,1835.0,1290.0,392.0,-2843.650614350367,1864.1778504709278,16398.91546389913,1826.1986791161296,1293.5922586744316,399.5661479575305,-2902.3587570778677,1720.6029042291138,16481.54088813506,1832.512765579334,1288.2204595692833,384.8049688107217,-2890.5668406373716,1732.3793100125376,16318.629850958161,1861.8505241958305,1272.7669760191548,395.6431186124283,-2939.848691573282,1741.882218451905,16457.312999998852,1840.231342434004,1278.1640898848113,408.8783837240509,-2860.7449482504744,1782.3880526154107,16248.576366831103,1832.589609723966,1296.569568295625,412.97950593308576,-3050.3121355393273,1693.0702871208964,16438.439178691377,1819.8663425356128,1276.6259736410395,394.69787334599516,-2956.623184766028,1886.162935197898,16350.088831191213,1835.5630711042572,1302.660926218325,407.65587203010847,-3016.5788133952765,1746.077971693833,16501.967938340753,1838.19327405888,1281.2063612394334,382.4134197113343,-2909.5745592650533,1888.977282163893,16287.240691546838,1820.9077766753082,1290.879519606411,394.9300835963236,-2986.168319929752,1772.4784959316917,16441.956700403527,1834.0166987428618,1305.4896043077947,387.3271899745535,-2975.940900699985,1914.6470252325169,16420.50884939145,1848.330064830255,1298.1697346625228,377.22057856061133
-2976.0,1880.0,16384.0,1768.0,1315.0,333.0,-2929.1208955645593,1872.802844006788,16248.798327650942,1751.626368132782,1328.529098808047,348.07176470352044,-2914.2348205121343,1915.9906001357147,16325.921081507866,1751.4290150321672,1304.940984669145,330.58139388850105,-3103.9214790977926,1900.7368648410206,16338.78021321507,1770.835910433701,1314.4585015378009,335.4589602224293,-3161.822430547135,1871.69141750339,16398.924312465482,1773.882236887138,1322.0752441353052,344.41405363749016,-2935.6819739876437,1761.0901896155597,16374.403190327628,1778.3605894256384,1309.9680877740925,347.0368435694463,-2843.4658841917258,1911.651313416183,16560.09406488442,1772.9004142216552,1306.888488220261,339.53217926473667,-3047.502304991848,1711.4535018002975,16510.675990212912,1769.7862149093146,1295.4769035563475,327.83938519201325,-3130.4413156680866,1807.0007062146358,16399.461404813534,1771.5600783794446,1310.7215141771737,329.6406307287985,-2899.3265036321213,1795.5855447241097,16335.897097475783,1770.8233960467555,1317.3819040114313,339.44864646540395,-3032.5867662265055,2038.0491592220556,16428.998479228423,1772.9239040060013,1301.2417751277908,333.7778613140847,-2861.140734287876,1953.7308965826167,16303.266309048897,1767.3355005985875,1303.317099865937,353.76084169755757
-3068.0,1800.0,16320.0,1751.0,1521.0,229.0,-3000.772057067039,1812.0495366535645,16533.653662839228,1746.7204245101973,1523.8327860535383,223.5405101846674,-3139.8078085172315,1865.4319395610084,16376.261555129044,1750.9487865943045,1516.331215832976,218.83015912754553,-2935.2858716402125,1763.844063805368,16312.61342917938,1743.5315533497983,1528.1994851756235,223.0618080438351,-2975.8432772646665,1666.1254715234109,16327.668009886222,1751.7594478345889,1537.432527992948,237.6942663997585,-2982.568874841258,1762.067382687559,16272.832929001215,1751.4105222441037,1524.1174297993637,212.03185515048528,-3109.2725923837156,1961.6905392786784,16444.140959935696,1719.838000647985,1531.718597094002,238.38031585756306,-3046.6431555812774,1729.644350191496,16235.527293956675,1765.6562014272802,1515.3545526360879,243.47365137095179,-3167.4029394085333,1896.4733817328165,16334.288327869248,1773.3935376920062,1510.353855680639,220.5386571528857,-3041.913802521618,1877.552454497402,16465.8040256204,1738.09495499308,1510.8011848073902,232.11139995791913,-3249.920830946916,1890.0862854751892,16335.947262350644,1755.9442205242433,1520.4730190920934,227.71646475813674,-3042.468002909651,1725.176166180354,16237.383126294486,1766.5403891472663,1538.7221817969744,238.76560160485008
-3108.0,1872.0,16488.0,1687.0,1504.0,198.0,-3244.2344347813273,1710.68178046801,16430.08744664339,1686.7387397878733,1502.135113517039,202.4522825423079,-3143.836877783153,1953.4626660478027,16362.084426078432,1697.0151609606753,1507.934451427338,187.61797549195882,-3225.0597784642337,2004.471706875538,16536.35487258087,1680.0328931279157,1506.1390785710914,211.35774117851884,-3083.890732691854,2063.236459787652,16491.317307579462,1701.2110878293831,1516.0951330107214,189.2747601241697,-3086.2696616395483,1933.0059868861717,16474.68110342864,1679.116945942594,1499.5433533626929,180.29062924680707,-3066.2128452733978,1880.1023513704904,16471.03127189981,1684.468607111033,1509.2502846301932,195.36623212448467,-3122.2500742242264,1912.1283525842455,16754.613160575307,1689.496489240482,1511.5294978054,189.2666463547636,-3197.167244400472,1697.463421021675,16441.988980932274,1703.4106373249338,1498.384872277566,198.02424535839933,-3217.484776023314,1808.6461943824622,16646.17434754193,1678.7388963994622,1511.439525744621,211.2635822807277,-3070.579303551591,1943.9417310654019,16465.3916438762,1706.810710243724,1501.5281082752638,196.85730134617728,-3075.185441428255,1855.5361848351765,16716.34186629564,1682.120971431999,1498.3269451399642,193.30961504807698
-3140.0,1900.0,16368.0,1727.0,1407.0,237.0,-3281.3799517319335,1927.1633867193243,16296.114535343433,1728.9795528895418,1413.779225741564,232.04844569648301,-3062.7156096506337,1898.3434126107493,16353.014121921025,1734.9647229931495,1415.1662602014817,246.58561796174124,-3037.406393016799,1800.6729210710675,16265.3874128364,1739.8563813909368,1431.7172741035743,254.97634924355225,-3147.269209210659,1887.3172870118515,16467.73484319589,1731.75198747738,1402.5342204351402,219.5224543865663,-3135.129268496021,1816.9105785624329,16311.8221609231,1722.9761615088462,1417.7140229878942,239.50735575193386,-3184.7272648500825,1840.8250067197189,16475.84426004829,1720.1093294046339,1418.4591092680166,232.33993961191533,-3122.4606593167696,1886.652012409042,16335.749687596292,1721.4983269446857,1402.416980858706,227.09297595778656,-3190.0860073316658,1926.8867041061458,16309.382578775823,1728.168862401542,1399.698051258446,229.36055297662855,-3087.80309811764,1777.8053036132405,16293.219469607086,1730.9123887670032,1405.8177978121755,222.29991390992546,-3198.4245946328,1853.851718119065,16274.225578753278,1729.068725369864,1397.6168130181043,239.41535489053373,-3054.973101507592,1957.438465019039,16285.78689682662,1725.4497214190344,1420.4425787507605,251.16353310743213
-3188.0,1960.0,16236.0,1782.0,1456.0,309.0,-3245.282750156457,2076.5870018782803,16325.658412735427,1791.4742952308816,1451.0543433527823,308.77840212774873,-3208.7188394083864,1984.5966633302337,16323.16088789313,1786.8559914549796,1461.3877428117507,304.6050315431107,-3109.196364805555,1887.1145419392037,16308.573144024966,1790.8918405078468,1465.3712626577367,294.29148448810815,-3199.3966771529417,1979.5445583260707,16165.34379979185,1796.8259362433014,1451.4522347141215,313.45847684944584,-3248.744970388236,1949.6984688847958,16287.05167140949,1772.6509516662707,1464.6977177519573,302.51835208462916,-3233.857134792716,1918.546794652994,16185.682351517653,1793.9049530306659,1462.898984983663,310.31378174243383,-3050.5674307561812,1955.0019183811744,16414.267302746503,1777.3787123792422,1446.6438642919568,304.4949849565176,-3155.9660705073666,2068.5802014709,16162.467164740045,1779.2857184668012,1449.7675251788316,295.4653095220823,-3151.68244985973,2041.9068497649216,16097.92702458476,1778.4503782949405,1471.1973463534193,320.62556980873,-3228.17633122504,2117.3562373804707,16280.708650300254,1785.007543434757,1459.209324127296,317.44270945046384,-2929.084163767281,1897.7055649009071,16266.603680224433,1782.55565208426,1450.3475498805667,309.728225123916
-3176.0,1832.0,16460.0,1622.0,1355.0,234.0,-3111.5799423291483,1756.3071567214815,16434.7710953924,1629.076335748064,1363.390272936223,210.09942692256058,-3201.716465897664,1755.366242137944,16388.236697864115,1621.4436909112083,1362.6165008648252,246.1445960348234,-3035.062203964758,1794.11688426709,16358.420948497485,1616.8884764308934,1357.2071223154019,245.17922514430865,-3275.691383781482,1828.5756315694764,16340.895234510625,1616.0287672147865,1369.1831965989657,236.47185229672735,-3172.8091574703685,1891.281969439273,16509.8728270967,1642.2375659846805,1352.8551487854188,230.96453412973997,-3073.314670222792,1696.9844861551287,16335.592712376796,1602.9581005611974,1345.3317781049923,250.34510423108543,-3101.8942999846927,1723.8841847934557,16428.462221651364,1627.0473446641147,1353.3852596242345,224.71193163045666,-3108.4507077410935,1846.7820132293118,16357.125546308616,1628.0000461562092,1359.3244590126783,230.91959434649704,-3076.228376533141,1692.059036469798,16471.52353142346,1607.8114732701615,1345.7090465472213,241.4040523562213,-3306.571272966702,1685.8904582895748,16527.058749368298,1616.3740857835558,1368.119902491258,230.02720665591218,-3145.5487663569056,1870.4991315869822,16312.019882217193,1627.5232525084405,1360.3210959684063,239.43346561857365
-3172.0,1784.0,16384.0,1740.0,1379.0,192.0,-3317.599239085703,1782.1812038162873,16480.96918623773,1727.4387509861665,1391.8977559795226,177.01340280011885,-3001.445449881503,1886.7294873774674,16457.96927791218,1732.979706486435,1394.0593924842085,188.97507445999616,-3134.472714965798,1813.2421898524833,16327.562872157614,1741.9505451412715,1397.6940715245062,198.8533923774871,-3141.4338213708033,1870.2947590185454,16345.364208301537,1714.2040709346677,1378.2460258492963,191.3585847235006,-3193.3176548092965,1631.1743474676066,16374.483538397635,1755.9157699507348,1381.8995833076804,201.22611101987198,-3300.633800340143,1795.6131979298148,16247.787898133689,1740.118174926464,1381.7548329370684,188.73172118845795,-3242.2726631003266,1848.1438591724939,16349.354342949615,1735.8925011839408,1368.3992313326444,179.9763262676755,-3279.3896115395814,1741.6649850275805,16467.96841121932,1739.0332341673109,1368.9817632442534,214.4595238873878,-3068.3152509932715,1845.7238530198617,16284.398614093112,1743.8131239481968,1386.1236520413634,191.10096184300653,-3217.0622520047996,1659.4063454630614,16445.444566012226,1741.814356493398,1381.9460153340135,183.66372281394064,-3141.686378920902,1676.6656719896864,16393.193224078328,1728.8260048328923,1382.8451771259213,182.84608293584702
-3156.0,1792.0,16496.0,1833.0,1479.0,159.0,-3128.476829290464,1516.9038397574247,16496.727521511402,1850.8016876950794,1486.844763995128,159.88344890582005,-3181.0738347080655,1998.0501019275737,16617.825431446934,1845.9567712200694,1504.4173881133872,145.93075295573337,-3084.2286639576464,1883.502451541874,16601.613165143994,1828.6775767858608,1460.3300877528395,160.98090407345,-3168.4010639721464,1760.5360798782738,16600.12328004929,1830.5954871580448,1473.2862834866469,147.13316553083249,-3186.954878030964,1982.266459268489,16507.676577862,1847.6521909181226,1478.9400751448204,155.41123056305224,-3152.628279066803,1766.3004550463663,16401.768233878047,1834.635335996739,1483.2319073368592,157.82581810055083,-3084.3569775841243,1878.2304612191367,16463.195452979297,1848.7155595592008,1483.6921496242464,138.69839492653685,-3130.239210852483,1623.6552699390081,16401.215226816876,1846.6038911998608,1470.9079899747003,151.28330623181762,-3151.0027218237865,1720.4150337482297,16637.971141827522,1837.3985900848825,1473.7905353144806,170.75863389944274,-3228.5763998661478,1857.770627121371,16531.956266962974,1826.3272159560088,1497.3989337755065,166.2199743006518,-3326.323949827277,1552.496580308684,16479.340791442482,1826.0712367944698,1489.1771214007485,159.1951534975622
-3236.0,1960.0,16580.0,1732.0,1493.0,175.0,-3289.461177551752,1893.031668558669,16753.751387728706,1717.7867664466191,1492.0224866133233,173.45664683864584,-3320.112612233071,1764.4941572549872,16564.061579136323,1714.8448886253113,1491.4141963750865,168.5647555738742,-3237.8333730851673,1872.5320922545664,16467.20392123038,1730.6485845794143,1507.7617451329222,185.7124959124204,-3302.256087398363,1924.5371641292238,16494.150939521627,1733.1449028872685,1469.8997369260042,176.24825928598958,-3267.4397569047173,1909.384365890238,16529.692415143712,1723.5643140030145,1479.538057669074,205.95511665802965,-3344.035013705921,1760.5327731183938,16506.29331867933,1730.4452271770863,1473.7766519141,174.32629201264962,-3302.8958391590445,2100.3044500140127,16607.05651229567,1720.0310999886626,1485.9413574990729,158.95127606520907,-3186.327088575263,2095.03723059048,16523.172492623627,1734.9892863282985,1495.9500252981038,161.5400548452254,-3345.641292838899,1955.9375981694513,16697.060501333603,1733.359199843091,1504.3762205233124,186.9926372033816,-3266.881961776258,1971.6576975187154,16583.555216595272,1720.2658458787087,1480.3840917012003,184.86005269551643,-3255.588551671643,1955.3099656906277,16499.289237367295,1738.5121978435573,1474.3334518403583,172.1934155406652
-3204.0,1948.0,16524.0,1782.0,1488.0,273.0,-3184.1445756272133,1858.9490282811034,16551.359156734397,1788.4404780385214,1487.2890667865286,271.93088896503826,-3202.674363475645,1904.942082409045,16638.42973848364,1786.1220786705117,1491.3981867213902,269.62779186546396,-3197.5169047764043,1947.0314309293872,16624.586783689618,1793.1739709039725,1485.9568738435814,269.7825946603835,-3211.2651088141297,1974.458350390184,16593.578418106565,1786.0606539915107,1499.2607326474729,247.4557267285785,-2991.1942693348374,2143.6692135484072,16470.22353948223,1774.7215832954669,1501.147559943035,271.7107010875718,-3078.1005594642247,1953.005630970524,16690.268355934062,1775.42270039329,1494.452521208363,273.60160505859716,-3227.8616503786106,2037.31355517656,16602.765790262198,1764.9935101933634,1488.059168395361,263.26790018275176,-3349.7396152184006,1960.4512416019809,16544.27529628204,1781.6614156668086,1491.33336701883,272.5543395619654,-3153.956197061808,2067.744984819139,16535.25232126602,1774.7200084284514,1479.4077423832184,256.89072600773505,-3218.7450987174448,1997.326580695201,16432.963858666666,1787.1844809613322,1480.1968680682894,282.1114984846008,-3237.9900225006154,1882.6304789523879,16501.371196491917,1770.5695108176915,1498.377189116712,290.38099266846774
-3192.0,1920.0,16648.0,1802.0,1399.0,307.0,-3181.2627469871545,1981.819797260402,16712.86547286215,1808.8016665161454,1414.771342123193,293.02167129228064,-3217.4990408030862,2095.756191251063,16716.37344746998,1795.022342793037,1403.6586930370104,312.64348776822567,-3101.3432376433802,1863.9315207977045,16770.88320034526,1796.7636364295995,1398.2729937003191,305.6246288578799,-3130.640402016564,1899.6438284408794,16741.19166643238,1810.1961496428003,1396.5535731819539,308.3247961839391,-3243.223703396298,1836.4572047707745,16892.723461919282,1806.3213841651655,1402.6028432387775,307.03793894871944,-3092.1803520603034,1819.2662949033797,16526.22089914198,1794.8451282323742,1404.5648429825128,311.0084403646316,-3183.5880635774265,1984.3363559916475,16536.166483002486,1791.7246198249743,1409.2035867311915,292.18563279820177,-3185.764555319079,1884.595661235501,16713.577305321593,1813.499328615237,1407.0473124774926,307.4753413744971,-3107.5064238782693,1896.6583482967976,16673.636887770495,1804.4743233130646,1391.3303768654855,296.8342254089971,-3359.8755417916836,1992.8273296298257,16545.65331373281,1805.9302044082397,1410.3805253036435,303.95199454311125,-3243.5928792012346,2055.6592460858733,16632.601474599338,1777.6520643785075,1392.9160458640677,306.1073462128808
-3124.0,1968.0,16600.0,1693.0,1346.0,223.0,-3109.7338507504714,2043.7389380785846,16463.48440988369,1710.2170504723138,1334.08507064529,218.2907387466571,-3047.7442416664894,2022.3611230506008,16640.381726872278,1682.5071686059453,1334.082410165547,233.48693279338113,-3165.1316915950665,1893.3328370358354,16577.443868110262,1689.5186363090843,1349.4418849382905,227.40612735816276,-3209.962921766549,1971.4228847890834,16713.682820146787,1699.7098769575532,1337.6053853869846,216.49067579199226,-3183.339396178238,1820.1895250681382,16635.200851171896,1688.7280616267199,1332.5116652027439,220.83388891029674,-3056.982151751308,1892.2374892811201,16792.720848262285,1685.3197001126557,1358.3189433562982,220.3634410596726,-3117.8648799317716,1896.4328745507785,16620.444852918383,1703.0752402033036,1346.1144527689676,218.62829580056163,-3200.9964764779284,2008.0609066400737,16507.883047735326,1706.4307495709259,1346.0292765059055,197.86647735988728,-3264.7296122426787,2164.073846971009,16571.213751917177,1696.5915472344861,1347.5583690271317,228.40532107440413,-3230.247840259169,1895.4812761256626,16500.994942989193,1674.5544817221355,1367.9755042700408,211.37513805833436,-3148.0892766283996,2006.2791931911122,16443.310228928985,1706.694169014868,1370.0750128786624,220.60245773483763
-3120.0,1864.0,16628.0,1735.0,1416.0,178.0,-3221.3169210802785,1858.971728348661,16503.987183870493,1714.7231903889917,1409.7330555246315,177.105578343829,-3289.0416605230675,1962.1929996263991,16577.819261367873,1740.0883549623575,1406.4304860749849,175.5640688782005,-2943.707404208337,1705.7720149858808,16556.190049227975,1760.4258932598639,1399.2286382967072,156.60099376400456,-3070.9236198805097,1938.2756508167613,16671.070869886098,1740.94583397098,1411.917970873017,177.90195469626602,-3118.913256386894,1950.5578530970693,16661.388330139795,1749.6862143849924,1421.9866795224145,161.94566909494438,-2995.1716577906486,1941.3393568844456,16615.27681258431,1730.7187888519052,1408.6065585398796,172.37009235462065,-3187.313240718144,1807.9056496370367,16592.361262022867,1742.7341029483678,1419.6154944701577,173.37024834643773,-2993.9370326198623,1918.0870362102369,16533.030801974277,1736.210257251572,1428.2590987555973,163.01197060572505,-3167.2273526531303,1906.3384141562342,16601.838044135988,1739.6902834980297,1417.6895991697959,165.52337176527388,-3286.472373706575,1815.886444524173,16598.065714149787,1738.9853263968198,1400.6102686253275,169.77783429163762,-2996.028740337082,1879.85169975826,16550.66373477848,1744.686278517228,1403.962596120336,176.17853612879327
-3184.0,2092.0,16632.0,1749.0,1348.0,199.0,-3010.6432722031186,2159.8128870014357,16627.257124128657,1754.3873770161938,1363.6364266149653,203.59295593114516,-3427.588977378157,1933.8609025359392,16801.958271261785,1732.7280033293855,1339.3547368223055,175.27706140036048,-3249.545026165795,1839.2833726988201,16755.37490972393,1763.0839050923814,1344.3908914575431,199.73935884971908,-3213.6409335541093,2188.16736541315,16751.355324025448,1746.5186927000261,1349.461686844944,191.16623270882994,-3148.7282111257396,1957.916894487253,16572.148565133055,1723.852330063505,1342.7312746619907,190.35557322441895,-3183.6413574098146,1903.5505210736526,16760.549488335266,1759.3323607830985,1339.8038606855164,217.63707334094633,-3199.546555290693,1988.0568641771824,16659.97615502769,1744.3586325235583,1367.4962606981665,202.73137357480755,-3084.864103418855,2317.5098973091863,16558.610988847908,1758.2186517157095,1359.9767390004463,190.2604729908458,-3191.092369073478,1989.001291841798,16633.361498996503,1746.7602058074647,1340.921184502503,192.14480505510096,-3216.9757183771044,2129.059281845781,16731.929254993913,1754.7315541661133,1357.7826362057594,211.2489772667849,-3209.84417022406,2141.6851975872482,16660.062673261593,1738.683664221775,1346.292479633512,199.4549075849956
-3148.0,1960.0,16720.0,1677.0,1379.0,252.0,-3228.39021344651,1982.5128340770261,16805.171866377186,1683.328402403478,1383.751026932262,247.5606834450809,-3126.3877182168085,1847.4963450978848,16723.78492402311,1690.979733578209,1371.3395479991952,270.0965549771801,-3136.0784665980163,2053.626159026585,16348.020088445473,1681.9934077087903,1381.19918335259,235.46090207115196,-3178.9812313831944,1937.426514312247,16772.014449743896,1671.344689934183,1383.9861947614693,241.97412546641834,-3209.6626594016006,2074.158177904826,16844.92877612009,1677.4176200437216,1376.4359806248438,258.04560833827964,-3193.2223548948946,1944.9392185279671,16869.12290893452,1677.9976762089216,1387.8218910699798,252.40054745343673,-3111.8479995361304,1915.243938719067,16701.40337422023,1685.3051711117726,1383.1688226266876,258.79533165386357,-3236.6208585101726,2059.100215588164,16711.61381937527,1689.1496066498398,1378.2833144294232,252.82821202523783,-3197.300023742605,1644.413251466364,16664.95689667219,1679.3949897280659,1381.3424130295257,231.5266832840341,-3166.388237464045,1946.826966218548,16642.133550519295,1666.825828754648,1386.9431408638422,254.72712174856602,-3285.6138935178797,1981.7132389841058,16772.21572481323,1678.0202077868223,1385.9698891963787,258.4919702056034
-3116.0,1984.0,16472.0,1717.0,1323.0,257.0,-3004.738823442482,2107.063347581373,16595.724117452362,1712.5654087981118,1323.1976100876873,240.63064753871166,-3016.806187532461,2051.593248334123,16339.433203199906,1727.9457408742285,1326.7195596931933,253.6068227769399,-3021.28647574234,1884.57687136631,16432.028070960656,1729.4625388003196,1325.5058324931183,257.633984509267,-3018.9671975163815,2016.839967865572,16594.616764356742,1718.7745909930834,1330.7558206293027,251.39828489500303,-3266.2849993577684,1951.7077964287757,16612.539953695614,1711.1575953660044,1345.0710536938532,251.1469689974344,-3034.5499033623805,2088.649785519502,16654.44672095762,1717.07912937365,1319.277533159496,249.10721110944735,-3181.5992397063396,2002.102037918653,16467.927026945057,1716.4550373214483,1329.5774542483434,248.17187043698237,-3029.2863276841404,1996.901514032557,16424.031950433106,1725.1238022767973,1304.1124364785962,256.7927917657489,-3120.885224029478,2073.0226922607903,16501.220823805048,1720.1169579597506,1303.0215460228762,257.48273622107314,-3169.3505045257007,1944.0080620524784,16392.365888136996,1729.8386336450471,1326.779413186001,262.9271534437037,-3164.350428199798,1889.9629506445392,16477.697722464167,1716.4810734304601,1315.9729921492162,255.07875927298852
-3120.0,1988.0,16508.0,1764.0,1290.0,310.0,-2902.847195066716,2075.371911916657,16382.269980786128,1773.4708324822411,1297.1008469466772,298.77716080262985,-2949.597394765679,1927.2426023747614,16560.410225035084,1756.3880270949296,1293.413801328804,304.42213876382766,-3226.5186003896683,1916.0230960351344,16168.37795325506,1764.9058696368254,1288.9347476714652,320.05987732446414,-3154.08307903108,2020.3890003103968,16571.848756396663,1754.7631283225924,1284.120725154665,311.3394435794,-3032.836075696236,2128.826716524746,16502.977162912037,1767.917231206109,1301.8462389706253,316.40081339109577,-3138.420751503904,1999.7620734267352,16540.587771116378,1770.5130366465946,1292.2845207036464,309.6848734698622,-3049.3433580070055,1786.0985007669856,16454.13463451117,1763.4781014592038,1292.7442790942346,322.6353533189563,-3076.8830090303004,1894.3649201590165,16415.394552157522,1771.6829536028974,1292.4701378512996,308.8829440890628,-2972.6698866160464,2060.8273179877083,16319.701677774192,1759.59825141865,1307.0816468368678,318.4185195038724,-3114.03415434696,2120.536698088763,16566.37594251993,1769.4915593777866,1285.1298821627993,318.165022819591,-3028.981384633222,1920.1156512287248,16575.51263279175,1763.2661924393528,1282.357685516826,322.94142694363666
-3104.0,2036.0,16428.0,1724.0,1305.0,323.0,-3150.4820382215303,1957.8380601593976,16456.070704073707,1726.4825673239225,1314.6688362166644,310.43276659685364,-3059.810838340137,2089.5449505318134,16394.038361053183,1738.6352250755851,1314.471018397459,321.97179435944594,-3189.611512648856,2086.895184220167,16508.384613487513,1722.2395988984888,1306.1258798874373,301.561651631338,-2891.1820279575013,2048.8373238462755,16314.678332609566,1737.720453175181,1311.9312484894667,321.0986267962095,-3140.224980610262,2100.390488091641,16454.633815645557,1726.1117192382887,1316.375662184293,340.9990128367939,-3073.1697124727757,2022.4345240553164,16406.76923109534,1739.536387361921,1301.1873643719346,329.9850777902259,-3087.386001010557,2104.7359071506844,16547.194158868617,1724.2978649354848,1322.050655384979,322.34077675337346,-3077.1210652278987,2074.757366311658,16294.234523819052,1715.8287924185315,1305.76591364362,343.3086473265743,-3217.665877013951,1924.9619818222689,16509.699893360335,1731.1591629671761,1322.8051977711896,306.72282889247623,-3034.249983540082,1899.2784286706515,16298.98001567616,1719.2170535885955,1296.5699543996063,343.93441416466715,-3210.1164856344276,2064.381468260389,16566.386112446082,1712.9341152695038,1322.8305070070217,317.5275588098539
-3068.0,1852.0,16416.0,1778.0,1273.0,342.0,-3135.302685217254,1921.3624425342969,16350.490459848446,1790.183794777702,1296.0445168309443,337.8488054582253,-3095.587660493591,1758.7606783743354,16608.093076932724,1779.8391626518646,1268.3822797492055,345.6111607175727,-3107.3001518771866,1889.7403325006794,16437.271157656283,1783.9984438063025,1271.1843638072987,359.2895292283157,-3052.433901246179,1960.2976639335538,16576.57906295239,1780.6982241873277,1261.5891659397744,344.86920992296126,-3026.3231336667445,1845.2552858451165,16377.006932810196,1780.940673612898,1276.7775591142745,335.61456564074155,-3114.6927987345034,1833.94965231835,16502.78553071609,1780.1358371802332,1274.7061223026171,332.80858157605815,-3000.837991150002,1835.4736902161385,16415.86212237708,1774.9331624334948,1275.1670042627438,350.82747774343386,-2895.2057955747787,1825.902660090736,16547.906804536186,1766.9014254977103,1278.908256879936,323.7229163706282,-2986.5387960620437,1953.388305985133,16361.717478577857,1755.7880691684154,1266.3667064546585,325.7414478116079,-3096.645705531085,1799.7578210608224,16469.314272084866,1758.7609914640434,1271.425329061422,344.54058881572126,-3137.309125945404,1938.1444166984386,16268.035338181964,1786.2210080634902,1264.194130519118,345.30782303325407
-3028.0,1924.0,16396.0,1694.0,1387.0,340.0,-3035.7095108263384,1987.8277450611015,16356.768148627678,1692.9238542180733,1383.0231671747,334.9235216408474,-2837.2936708661164,1881.0436354567291,16202.05759405572,1702.2718791944283,1379.476398120072,342.3476755714852,-2948.5534980064676,1926.2234862196924,16525.63525060153,1693.7783411063447,1412.156056639704,356.47910302337635,-3094.0498371920226,2047.6764931177445,16470.242131876523,1694.9267202112112,1385.8887540463793,356.34089632931375,-2944.5257309571753,1993.0943877341672,16344.545985090926,1703.3863437952732,1388.896798753963,342.7592958735073,-3073.2433699887274,2034.2856717974985,16363.89946448758,1705.5729158342137,1398.597213643596,329.30048002134555,-3072.143396907267,2087.890678900314,16437.376041827938,1676.6974929193202,1384.3240756380646,361.129243392052,-2764.608814671298,1880.4068848655795,16442.204334573496,1683.9075325796211,1381.7990659313837,339.07738762009944,-2956.1647947958095,1920.4896485694544,16381.805028121638,1690.0718892026607,1379.3350048826742,358.05374305492853,-2995.220332527585,1996.2352159637928,16247.315147371422,1675.4241310045916,1384.155533095487,336.82586170847947,-3067.5274856754895,2016.6225388488606,16323.381969094835,1686.4758427125169,1387.3114782066918,340.14914238192546
-3136.0,1820.0,16336.0,1643.0,1479.0,186.0,-3054.3378714888395,2087.329493792602,16448.865634543592,1654.3348321284423,1477.426582920299,184.7075487735314,-3188.5198505767894,1880.5703387333383,16329.84037678058,1656.4656306537115,1466.5951586909473,197.93778841518224,-3250.947934003561,1918.1131367057492,16346.607809815358,1629.937496770562,1489.3397020970565,185.320773304037,-3216.764099037523,1848.2942993808301,16290.483393933031,1668.4436358430596,1484.2565851057939,190.78786436203433,-3002.3585636508683,1890.9162020510093,16227.567482314964,1612.656104076664,1468.684321672207,176.0832871366572,-3154.355687003013,1941.574685971295,16218.915389623566,1641.3586323331074,1483.1018519271645,187.756155099533,-3085.147528450346,2057.990864122715,16263.229251122506,1637.7551008317976,1472.4699296828842,185.02645997099805,-3224.2959349446555,1884.2671146921216,16097.019463001925,1651.6396829186058,1492.064627998593,189.97789870543815,-3286.5188269347723,1841.2323772850236,16293.317568369603,1624.6057074010623,1479.026321483521,192.98123149953017,-3130.0915657527225,1945.6636145686912,16363.112521925663,1646.0666835981017,1490.321112889879,180.50653100899183,-3196.9894971742624,1829.8610009560666,16210.17638230902,1639.3603593094715,1475.113393762899,178.4348441631506
-3228.0,1972.0,16416.0,1755.0,1431.0,178.0,-3226.2688421793096,2018.7879232058078,16264.624793173081,1743.3045551211992,1439.5549680865622,158.6055792643138,-3219.6475315445177,2033.5358810976809,16350.337782722872,1753.6283670083164,1438.1941897155937,173.95381871937732,-3300.862216330139,1989.101674452097,16340.307360531455,1766.1507499936574,1434.8003650801136,197.02980366257913,-3255.7791549339127,1913.4581368565455,16219.452399975527,1771.2406789321305,1425.169520079906,175.1317147973299,-3418.4034223529607,1996.6286739968239,16518.237793823246,1759.9433859634985,1420.4046622598362,183.53186607948453,-3179.520386883563,2045.6156860879462,16520.021255939337,1760.887153656315,1427.3521916180175,189.42148323374914,-3284.1794696837433,1947.8902537390723,16312.496964549262,1757.2095793359194,1437.8312836950483,180.1571007011034,-3229.3488134172517,2029.659181299527,16558.60686967988,1736.2023072358313,1432.0614012921176,191.03732401863354,-3222.558733466425,1964.3413591552112,16463.144107831205,1754.0895608135454,1438.8999884636303,167.13585521373037,-3251.9424508149914,2040.494646634703,16262.629501862471,1760.395674628987,1437.0053068617353,176.60146657570965,-3347.825344230437,1886.4814601160006,16640.235472865967,1761.2999501666382,1422.8427563399052,185.43884681967964
-3156.0,2188.0,16328.0,1765.0,1425.0,286.0,-3319.130137179996,2148.392129594335,16274.054939612572,1774.868357136041,1416.1768292317022,288.8616941969518,-3250.650311410864,2079.8871912557606,16382.097476914056,1763.6799275437984,1425.5886790848049,278.9259357074008,-3144.8115598244867,2238.960841650946,16149.752603791618,1751.0967886518063,1414.7965070736716,266.2821372543685,-3196.1135499633992,2164.3154691716054,16364.614288888191,1798.6850765448312,1447.0275284703596,283.9867395738878,-3150.7926400444244,2252.4815483523557,16533.13994517178,1768.4077960946152,1413.862690739057,279.4083945867322,-3138.13901590906,2143.351249360392,16236.726843049517,1757.7178678125906,1429.2127803709225,286.42415443730994,-3028.088685114755,2097.210947808899,16227.571389981233,1781.3435263518566,1423.6435701430642,267.3330980021903,-3114.38377437364,2181.873258640926,16291.305028636454,1766.0023411283532,1403.4215781942328,287.21040800281025,-2972.536476217573,2150.996139971354,16449.558484049227,1741.305175958943,1412.893636895806,273.9169055666434,-3025.938096612659,2243.126644763166,16331.444048055093,1748.0556163136084,1430.675775521401,278.0222977456632,-3160.053538923683,2173.756154520043,16492.64051493901,1765.4884868586284,1414.0801645232566,281.5942796475426
-3116.0,2028.0,16440.0,1604.0,1419.0,338.0,-3049.277101838806,1993.5997867876783,16486.08389405097,1605.335409183639,1414.7385078019893,331.97061441183723,-3204.1585977494733,2124.2752760179455,16398.80635938518,1616.3507717274008,1439.7138403355125,332.33447682747715,-3051.2927535360527,2059.391274371471,16352.146206483705,1592.7909216289515,1407.7453049295657,340.3980745944758,-2923.841739148443,1977.974502773657,16521.02236357803,1607.437665162555,1411.9797070418128,342.529032182891,-3161.455991460553,2122.508213930776,16472.265622563114,1595.4195366615518,1424.0612180308226,330.91452420769747,-3002.229266214871,2080.3838504103724,16485.728206699223,1616.2658047668506,1404.987850149371,324.8608487872905,-3177.2249439862444,2084.3156558492315,16370.154770467057,1603.6907317652044,1421.2336888750142,347.86488917258737,-3073.2480842653235,2034.8158308979305,16298.435545311884,1600.2245913344882,1402.6303592185404,335.83255429092173,-3138.7931400005277,1988.9795214115925,16364.517622899059,1614.6811612665747,1428.816103895646,344.9260602229447,-3064.760516855192,2104.994478012856,16428.500024028974,1616.4982118736227,1407.6166809933143,340.9163273798959,-3034.5819394517325,2041.6082013872128,16321.548416179558,1597.6548950658785,1411.9207997865694,340.90220921445757
-3164.0,1808.0,16344.0,1705.0,1464.0,277.0,-3109.0494237772914,1768.4981006109083,16243.185334227886,1719.0216802395103,1458.2536884784433,249.6911326210015,-3314.184742365155,2012.85061502295,16300.199519311116,1693.8219102035603,1455.5628513007905,282.88359269828084,-3066.127185689235,1805.1546603831532,16352.209438509513,1712.9405638967582,1464.266989400766,262.2174530560577,-3142.7529849002985,1825.5965352962737,16320.171519053682,1711.4545906508547,1467.15797389314,280.9176067001577,-3288.6154718477496,1795.2654267327036,16425.05897516359,1708.7188917689448,1461.2784840870186,290.0594685064183,-3184.27648952983,1934.9471632461566,16266.999071890788,1705.8787514485962,1477.5427550144757,279.57579142493773,-3321.7364444340465,2009.4206401189101,16181.94743787737,1712.7842467389537,1471.693036326664,284.11970064409144,-2980.996498229287,1897.2323207206489,16466.835835961683,1708.032235036467,1450.345928695377,279.6110023270332,-3245.384046876606,1525.8289661027356,16351.00362457192,1704.7613381689675,1473.2799125535873,287.3471006575965,-2988.631359925849,1826.7568530058677,16250.676743545606,1700.6340481420364,1456.4768716273281,243.89564449561715,-3196.003136016141,1954.0236263884756,16222.244068079517,1696.7643306480625,1479.3197537916787,286.4499979643991
-3100.0,1904.0,16444.0,1827.0,1441.0,257.0,-3152.4545755558715,2085.3935407668523,16472.23985865153,1823.0998332085167,1438.932468238739,252.56997219528517,-3206.9951002921434,2000.3123153088654,16387.934671897496,1810.0635456248222,1443.440005606629,258.52672254459486,-3127.595910393007,1911.4193619149078,16578.058770446816,1815.254870393482,1459.8629453206659,251.3765076730277,-3053.517680111492,1954.7183271892495,16484.779233606023,1829.8772795963546,1458.2030856189792,250.79424458698264,-2902.163497294532,1880.9077196101882,16443.057766148897,1830.2009976328316,1450.9667123053264,275.92456409211167,-3174.4540478470417,1873.2971445766616,16225.495779219646,1833.7914572087063,1458.7142976048492,266.7398494360196,-3100.8915312333897,1965.1932298505335,16467.491490839326,1840.7051487722229,1454.6753213541463,242.85382425820734,-3120.8652748593336,1895.0962563608387,16488.77359864196,1820.460089149088,1443.452038644961,251.46961533098323,-3130.9422121417006,1943.9760835745637,16391.780083289035,1824.1119760896133,1447.52755987385,243.0532580248073,-3093.0723286322827,2019.882038757839,16527.913182498785,1823.5170978363353,1434.6450513721848,268.3295539825336,-3089.395068671419,1853.6900444973571,16428.597185417733,1831.6166072395972,1435.2160608466606,251.59864266251083
