IMU1_AccX,IMU1_AccY,IMU1_AccZ,IMU1_GyroX,IMU1_GyroY,IMU1_GyroZ,IMU2_AccX,IMU2_AccY,IMU2_AccZ,IMU2_GyroX,IMU2_GyroY,IMU2_GyroZ,IMU3_AccX,IMU3_AccY,IMU3_AccZ,IMU3_GyroX,IMU3_GyroY,IMU3_GyroZ,IMU4_AccX,IMU4_AccY,IMU4_AccZ,IMU4_GyroX,IMU4_GyroY,IMU4_GyroZ,IMU5_AccX,IMU5_AccY,IMU5_AccZ,IMU5_GyroX,IMU5_GyroY,IMU5_GyroZ,IMU6_AccX,IMU6_AccY,IMU6_AccZ,IMU6_GyroX,IMU6_GyroY,IMU6_GyroZ,IMU7_AccX,IMU7_AccY,IMU7_AccZ,IMU7_GyroX,IMU7_GyroY,IMU7_GyroZ,IMU8_AccX,IMU8_AccY,IMU8_AccZ,IMU8_GyroX,IMU8_GyroY,IMU8_GyroZ,IMU9_AccX,IMU9_AccY,IMU9_AccZ,IMU9_GyroX,IMU9_GyroY,IMU9_GyroZ,IMU10_AccX,IMU10_AccY,IMU10_AccZ,IMU10_GyroX,IMU10_GyroY,IMU10_GyroZ,IMU11_AccX,IMU11_AccY,IMU11_AccZ,IMU11_GyroX,IMU11_GyroY,IMU11_GyroZ,IMU12_AccX,IMU12_AccY,IMU12_AccZ,IMU12_GyroX,IMU12_GyroY,IMU12_GyroZ
1920.0,-472.0,16908.0,1737.0,1355.0,317.0,1958.9711644613267,-581.320426835254,17024.003194062207,1730.7916973328863,1354.7892931158403,314.2887114154815,2059.393836049712,-313.9059281292,17017.512024732318,1740.5333945430564,1357.651744457587,326.54910013035163,1978.7744999160316,-503.522465077152,16923.943556765076,1742.2718742543277,1352.6433315600873,305.77195057409733,1961.2692966672414,-601.5879382091009,16951.5956635818,1733.5775360229568,1329.5122924325365,321.0661795769848,1978.6882115358203,-486.9079162548194,16881.74844502039,1734.0395383139382,1348.6738849514395,325.3843477345551,1915.189098206357,-460.25901987273227,17051.188020817135,1727.3811261552692,1359.4956829723944,312.6858872648616,1853.2749960201477,-339.49372611159504,16891.673247473624,1746.3086429131645,1351.699719117479,311.48603880721186,1971.8645602059978,-585.5553715791237,16920.84590186803,1745.5061383212903,1363.4594014799334,318.6654556945691,1896.1308847389507,-494.43683429301643,16876.537824287727,1743.5601211785224,1353.1945562791916,334.188857674186,1700.6830063845846,-528.2208328528218,16789.051018849215,1722.333398023631,1340.688251538231,305.90107008980743,1724.241880999718,-482.981051378599,16812.484075909182,1742.5165069523416,1343.5748607541314,309.5226709809004
1908.0,-404.0,16776.0,1749.0,1341.0,277.0,1885.4428386386423,-242.4170670805197,16553.980474031214,1745.5767127819825,1335.0464472743442,259.97564031571017,1864.991542336034,-402.57316353187605,16853.435335111753,1730.4066810525471,1341.5742190653066,274.1559779975623,1987.1414931929494,-490.8153288170545,16780.375734279474,1740.424561608008,1350.1530430022403,280.38306968422495,1854.4809194072031,-478.63288184909806,16839.033215963525,1773.822874521154,1342.9704291497765,278.1175180306958,1894.333439616875,-413.55383135164845,16723.04889069436,1767.8656889940482,1349.4990477325407,269.6591324123765,1948.6474728344463,-400.3576903468593,16819.87962737561,1744.1210733060839,1357.14381511566,278.5778861544072,1802.8606327353527,-432.85513360545684,16817.99566684783,1748.5004823548095,1327.0945108280916,273.96382415236104,1944.2572405824105,-541.9116751593529,16890.868022724873,1751.9953787870097,1345.4120356681976,278.87973061145925,1887.310880375043,-333.3353668042557,16712.612463399975,1739.1132203823004,1350.4792365731332,288.99944465775155,1967.4043903125778,-550.7515239140477,16802.82183647952,1751.4855951329837,1329.974093502463,267.17526051104886,1748.0483347297584,-425.2574299303576,16854.19299807216,1747.1019975908328,1346.152066306611,266.226458148561
1888.0,-384.0,16916.0,1712.0,1297.0,304.0,1887.3033556635523,-502.4562384171059,16883.326278716482,1705.9035518430585,1305.511923181443,307.22938900120045,1843.5553353653213,-232.34240421113762,17161.241950855634,1732.3678943014238,1299.0683843520924,299.73491085155393,1943.4404240779975,-311.6384663660419,16917.26159700598,1702.366185061397,1312.2299040287942,290.22759073143544,1758.894428407806,-334.4642468964821,17125.7925671074,1713.0686706452432,1300.8515402072107,307.7427489868146,1823.6980337810314,-210.75853452882194,17005.195801363632,1704.8450761467548,1305.2931838932468,318.77032338299983,1819.0278621148047,-585.1498315194551,16982.05693345229,1724.422545177669,1290.1471592368955,299.8009672719383,1828.0517977267525,-373.12825827892823,16951.01899660642,1709.1463794143754,1268.3648708320648,310.36916360395435,1729.3826778134217,-288.2739436371346,16981.471922960372,1711.803057405906,1308.1183438175563,300.26714682104614,2072.102375194199,-351.1739600195997,16884.00972970769,1706.1326301574738,1290.6138773899254,294.58555719153344,1859.8478266830493,-348.8042188830933,16920.01659324389,1720.6924312110627,1296.269943070148,308.67474825360927,1917.7279166372564,-326.9681180455427,16910.232230269256,1716.520631874002,1314.6476114598352,310.7313669655824
1900.0,-428.0,16892.0,1743.0,1334.0,322.0,2015.5544546003216,-360.3565350025101,16755.950473285644,1755.6654868188725,1333.450842136753,301.0845135897558,1923.0759080223402,-306.28785569922024,16929.37978539062,1737.590880175488,1337.2742063133862,311.8728144041549,1833.21677848787,-363.2895664611582,16802.237251595358,1754.258130876295,1338.5951262190172,325.892577472139,1865.275205287678,-361.19144234849773,16998.75012141771,1739.9727224165586,1328.6217458204449,321.58572532214595,1792.0208742542059,-604.1344434066799,16856.486914492776,1748.5033032038586,1338.198049496421,310.12849667827675,1923.3468800972903,-386.8686681022457,16962.552664138522,1741.71566856689,1347.436394976926,339.14330081346884,1925.50659252038,-339.7865030365193,16888.653724321055,1736.692526530258,1342.9062219127422,329.0764362977626,1884.271188315223,-387.6868135640534,17001.92790453565,1732.286119495025,1328.4765702750078,330.6409123225172,1829.7416921798258,-435.92658841871815,16978.643410532975,1737.94990152383,1337.5610264709321,317.7013744910613,1904.6324166634179,-492.3622515674839,16744.831648113224,1752.4280768613332,1337.7497912452927,319.7410311686973,1868.824193619883,-472.38696313591686,16768.195054941167,1751.6392254330567,1326.0063407149198,320.88329292721187
1928.0,-424.0,16860.0,1733.0,1371.0,312.0,2090.7840969375784,-430.1180413405045,16908.592275147726,1746.5687164667086,1370.4689226700539,310.64027179340906,1821.298095935344,-428.56612593368453,16938.19393437673,1718.8812675584084,1369.8976962575957,317.0462611312675,1881.8735725322404,-380.6799586724929,16893.761631973015,1747.9217305365796,1378.2056971805666,338.90588893628535,1736.7423363102353,-206.25088263390296,16834.16529534291,1736.8413381629575,1381.2235570461844,309.43883939171286,1873.7618971221361,-445.37839547476443,16757.812143575593,1730.7717920478256,1379.0015714871968,301.0555613367546,1930.2344582455548,-515.5079590852536,16739.9887583505,1729.2649528671607,1356.681189464764,301.12251350986736,2065.79739128115,-332.30479137694584,16899.192657199495,1744.8572862575052,1360.078655246855,305.1329088978705,1968.2660070354789,-409.2635805241483,16884.527749694204,1733.2464771832888,1370.7821424365814,314.45641878147154,2025.9957524764643,-262.9353104771091,16757.13601373891,1747.2918264040875,1343.245874580415,324.7739263060517,1983.29319619664,-504.5691360833076,16970.410600971085,1743.7698722415146,1378.6518547674032,305.729349807511,1956.6626980273677,-322.6038829033157,17021.283141789525,1734.5430196292873,1384.8443647353677,310.2743956207227
1864.0,-388.0,16832.0,1739.0,1357.0,309.0,1884.3349350862495,-510.5227230039875,16919.43578330923,1744.995548565321,1355.9169342350917,299.8393784443266,1822.5190716095788,-487.104771832368,16953.736676476216,1748.533034250465,1359.6684775284245,299.98372623984704,1800.6125463594356,-460.07877322911764,16833.21002738858,1754.5091092610248,1367.2803897130898,305.0085837015703,1811.8240484740784,-402.60684191991277,16820.78839223533,1754.840746923836,1350.0211538274848,306.6079365454091,1991.0202286356773,-476.9315633121822,16847.18437732955,1740.605822588073,1361.4099121339286,316.1734469115883,1916.9349112095954,-453.1703530402035,16935.477987307204,1741.2267182912683,1360.2562205631118,294.1976085939132,1930.4879720966485,-305.22516334151004,16841.575045544905,1738.8887535021072,1369.2713253890136,306.60352007463433,1980.7014337174642,-357.39093444758964,16673.762497149222,1740.5709217697008,1362.375258500278,307.3301783952125,1806.8398081034716,-345.5669301612088,16974.91660319942,1738.1228657326174,1350.4290977125625,317.9909692984312,1850.042961319581,-210.61583463436824,16856.486091016453,1742.3054737526732,1352.1257795229521,321.9322246860894,1904.708110034865,-282.0759353945351,16809.307781502484,1748.5831304974056,1364.2785107852803,309.28100050710316
1920.0,-484.0,16932.0,1728.0,1330.0,304.0,1855.1644824322964,-437.67137444981194,16827.134358614636,1743.0697983039684,1322.7396782122798,310.4490559340533,1922.838120282747,-655.9745072867122,16875.922433780783,1735.8928428469994,1327.983329752188,319.1635794285218,1795.3989617924262,-597.5781556122492,16848.012634446204,1724.7349470277095,1341.874246524793,324.68006814106036,1810.1420224300043,-451.275430725814,17132.924216203493,1737.4622347200411,1333.607962754097,295.04824349564495,1739.9473419477595,-573.848450326988,16868.180783316708,1717.5116722733194,1333.9623208933524,313.1736845914423,1867.0771743430632,-515.4140518987168,16939.40225266664,1721.1370751554466,1338.5290055587768,312.9771704480055,1991.0034767787897,-429.4980534851818,16895.653987315236,1737.0473281742668,1316.3095370729798,310.48093834126723,2007.6625567033643,-484.66434080865133,16876.143685727176,1737.1481063254016,1334.127139896516,296.97822087743043,1848.6053348861578,-452.27914248126945,17001.1705631522,1746.059019437883,1333.6075892714578,300.2033813212655,1854.1135553291772,-346.38060117540806,16926.45753020999,1721.8074007845837,1340.9739513185762,310.607088813124,1730.6303126082305,-599.7618687819958,17085.504095088727,1721.2860591178808,1332.4266658334252,323.89009769080036
1908.0,-376.0,16820.0,1724.0,1308.0,324.0,1930.9842308809134,-258.98049778600586,16743.509671479867,1710.9065470726418,1302.5755675495657,317.783373735978,1829.8288652972176,-422.6772634569072,16708.163778558355,1722.6391029197177,1311.4595189247111,333.5140471236359,1711.9142083952347,-325.2419719085596,16666.792182936024,1719.893184508369,1305.5072298600485,309.5718699060954,1896.4914291322561,-225.9087914097662,16717.79576995684,1714.069894218966,1304.109605098491,307.1773827173505,1875.8258122987895,-565.2829654591108,16956.753787879996,1718.1962599807887,1326.4628444228242,345.9332703411109,1884.203009520967,-428.4797641570278,16916.489931672604,1720.9852865100522,1303.0119447372422,319.44489295998636,2027.881939659531,-405.96263196435217,16874.078880461882,1733.5148753131155,1312.2973183981985,335.50771336598825,1981.1925555334808,-338.19504694507185,17008.797451807684,1720.931532582859,1309.8824678153478,316.1007950230499,1840.082136528276,-334.5466260597901,16855.492865221775,1725.3911235641672,1317.737406675538,325.95394765189786,1852.4390715018765,-293.22992847648703,16966.156511780497,1733.194315359514,1310.5316233616268,318.8085639218838,1948.835469568444,-316.8611800635471,16685.268481319265,1729.7559352466599,1314.535453525242,326.5132292432707
1920.0,-444.0,16852.0,1746.0,1338.0,302.0,1829.101824339208,-200.6330958317581,16851.143713842786,1757.8715236490461,1343.1800371455988,309.37730284007404,1982.4121157208783,-313.22988503485465,16755.385227633724,1763.5896987441654,1336.378055625712,293.8309683083634,1845.4507717238528,-349.62944242323607,16860.138339732173,1729.1200043964625,1336.371626744882,316.49163374952906,1760.5373307594587,-496.63426528400055,16732.4550295143,1740.0973065953024,1338.2502183582878,289.5188019315393,1903.2756505313505,-282.9108873172357,16797.69698815064,1744.3895114597162,1318.9874720777302,300.95966966021797,2019.3640412135676,-453.01333904702443,17057.22474913781,1737.7718119672045,1328.9138720478431,304.2447049614783,1947.7208674838562,-531.3401501788674,16823.829832177144,1730.9374825870905,1337.2802604789174,275.0241960977864,1947.9516519182678,-292.3110764920923,16860.559696287848,1759.8781051517778,1332.2922364224091,307.9794009420518,1922.0327742942206,-551.4277533074179,16908.783745593046,1735.1801818101287,1327.492832178324,293.7314061382033,1772.8257869887202,-529.8856928642524,16845.175065225212,1743.2929147990037,1346.7192992705188,297.1716909442995,1868.1905162176115,-566.939096809731,16861.887870216335,1742.5850025268082,1358.9969304766082,289.50062909131856
1880.0,-460.0,16932.0,1747.0,1337.0,308.0,1859.695705006219,-363.89309103533077,16867.42585499224,1733.024506661142,1354.0199121428768,299.14566420918334,1924.3545943873642,-565.2423348244918,16939.19353527608,1740.458563993759,1332.1339713320613,291.1458358460507,1938.2039373743678,-355.1664577846283,16904.01484112671,1753.8329223700932,1323.9366350287341,298.68904035336936,1992.0328138647567,-340.21865343470836,16783.95187242613,1751.5303579570689,1323.7964232886973,305.0539853478243,1854.159101626948,-391.56355318978217,16883.25782929446,1747.864361941101,1319.9248150196138,295.0269955745982,1845.3080081467788,-748.5289746866011,16737.061563035353,1749.6740890645597,1323.2934926744051,296.7547079317039,1842.710416885049,-529.2291386547075,17081.90239844135,1760.0622021845602,1320.0931398081573,296.92681798438275,1836.4403672929243,-459.4039774162461,16954.140380656147,1735.4026896099376,1340.2611086046284,329.0044004181465,1864.604346514985,-396.80357919709553,17003.55845178192,1738.6663609465934,1337.6950414406797,311.2458580242741,1745.6605624972638,-361.90934024426315,17070.83980154277,1744.9791074797033,1327.1738116087568,322.59784587776716,1876.6173627847418,-380.60336747747556,16911.084272864144,1749.320638794868,1332.4216878403888,296.4815991127686
1852.0,-504.0,16924.0,1742.0,1317.0,324.0,1839.7726026908808,-549.8196050327313,16886.805481627995,1737.3378207227445,1317.5213232452882,321.6547978965084,1943.2169639660076,-502.6066360349873,16936.371041408525,1742.845501763836,1318.8915783683578,339.7194737238207,1814.8914717576627,-398.2385956749612,16828.817804177812,1723.82787978445,1314.0078220454818,309.6150169051465,1953.0725603140925,-543.5269216042027,16877.8045800214,1729.7963965995577,1317.4289067946477,322.3356903764586,1815.6164070148109,-412.1999385022359,16787.504854306848,1735.998247060547,1317.3973710714574,323.47306452975573,1772.0405866373237,-485.8412584173206,16952.669198544456,1754.630247458692,1316.0609855944026,315.2068958158107,1845.4679663183585,-633.0897634568053,16894.817120996988,1745.7478095020745,1317.191651097153,312.930838601682,1956.1575608982394,-617.4641025847445,17066.10925692225,1750.8401232990109,1327.1314360807278,335.5034364085729,1888.928846287727,-465.22466580181316,17008.771976100055,1746.226884245986,1320.0317205326373,320.87247059089395,2006.1689844328516,-403.7828043992088,16888.499356495355,1747.7667175859885,1342.0524435784255,302.9565522971321,1867.4157409632644,-586.9530207865396,16832.654950603268,1738.2847728050879,1317.1587809250625,304.2983558933872
2288.0,1780.0,17600.0,1574.0,1813.0,200.0,2279.8854797188765,1824.6633148412766,17509.581655222522,1592.1472165595062,1798.5923104393792,190.57486565198235,2133.7782565227108,1775.788567202994,17533.301064267638,1586.5236359573114,1813.329851613307,213.08593026763185,2154.8046670140347,1762.3586339392991,17785.115189827815,1578.1873920201701,1826.374617615011,211.87662419839353,2384.3483281172776,1952.9569919453097,17450.679030687785,1571.9228690291898,1813.2343617784045,197.5569393583666,2172.862376723413,1906.8210863075926,17619.047536678077,1570.4815532753228,1789.2724770803609,201.4500303770561,2259.0968962710645,1653.5658974810578,17594.457269394818,1562.9783569823778,1810.1332395566048,189.96632328857288,2328.1492239319573,1637.2992073779378,17615.31111126318,1572.2425680507467,1808.529760888895,198.07882543535516,2360.7954397170315,1806.9320817084376,17583.616960291594,1584.509268610467,1803.8628257024009,200.2269402637975,2448.991587670661,1719.1204287855444,17539.85460630053,1576.5276670182884,1810.0043752217184,213.70272014786917,2378.0546455243857,1688.2744636221091,17531.44471985772,1577.23531728613,1816.0988275632947,213.89220912355347,2259.521394645613,1755.6587270848397,17650.93050706166,1584.8530536608775,1828.574026281243,190.18419090725968
1248.0,-1476.0,17236.0,-891.0,1133.0,2313.0,1309.359061017543,-1421.355019650967,17392.2168138304,-896.5263343508462,1135.8806846536536,2323.4645128041193,1296.6156971497392,-1441.892813241043,17284.402361457072,-910.4655954926969,1138.1532072698183,2300.310166306276,1087.5230987504756,-1656.3381154496917,17337.383611630914,-896.8459768674787,1131.0732648561661,2323.369350987051,1170.5609241273446,-1431.5244559663652,17278.750338980975,-898.2908169147573,1118.5844617943726,2317.3557203000437,1229.4736727645356,-1535.1436354614211,17332.454042753958,-878.5957137844659,1161.0133310346096,2308.334238882293,1120.8184084572608,-1529.638967922073,17160.18139144495,-877.6538848246323,1129.02395849067,2318.18829191276,1164.1487439849277,-1507.0677648781862,17355.458620230762,-890.3489107180073,1120.3575899924508,2299.3800326544388,1338.3992919514556,-1619.3485500401673,17330.35609267517,-886.9226969609024,1131.9114953814428,2296.241763693195,1102.7258522011584,-1417.815216592678,17153.588679849974,-894.1840045589096,1135.1790350048548,2322.225179109437,1153.2858976196605,-1525.4356004778563,17176.69344102456,-887.5705281008627,1158.650265485265,2304.6431827971446,1235.0536609574394,-1478.9286243374881,17292.437671068274,-893.4691440938356,1121.0406991989357,2311.7203880411407
2388.0,-872.0,16532.0,2901.0,1200.0,1074.0,2238.525976453556,-928.2506111963194,16686.204385168592,2894.7995998740093,1191.4800203885952,1080.8868683861479,2411.3145958716614,-734.3660935500667,16551.659623182342,2903.7049566183023,1209.5669424065363,1073.6953766912043,2401.049577694723,-776.2074887616105,16356.871925456733,2894.627283818114,1200.1632201339012,1077.3965298460746,2435.132297923061,-928.5167590444839,16532.168093096305,2898.828630404944,1189.9618082492564,1081.7537882136098,2425.9306643675714,-952.2005433669426,16408.382238818507,2900.906115955229,1184.947845854191,1066.5415828769706,2343.378398480556,-826.6070391603927,16522.406258841587,2907.537214559746,1191.3235754701486,1059.9188936145508,2364.406903977638,-800.74150873122,16618.464097493885,2910.354754690776,1190.959841899885,1081.1254725389606,2183.4074589514958,-830.2507329899718,16508.445747673108,2902.168665260628,1209.4140467863904,1091.342312349574,2385.9728937518335,-880.0665978292068,16528.670763490998,2901.3209601068957,1198.8961472225553,1078.9202510709856,2184.3122947246716,-979.2180538509929,16519.466105422347,2914.53748991813,1191.0857751623007,1062.670077771653,2494.4292828512157,-754.565109747487,16569.62920420703,2893.5011060447514,1189.3696480913197,1066.4007252191125
1540.0,-1040.0,17116.0,3824.0,871.0,1924.0,1501.4397615592288,-1052.749420747055,17014.797369259733,3809.192925969399,866.6263645249245,1917.3818863153062,1585.2179994224318,-789.8960993247733,17041.465537945558,3808.506881528242,884.6662842472384,1914.9459040728982,1450.6583150527958,-1150.8829124661302,17051.872065814518,3816.223529782706,869.6469945623717,1929.7513393654392,1659.7126325528945,-998.9020099462584,17001.808622787907,3814.708316289614,880.722063489212,1925.9993251089072,1620.2244819696405,-1141.0480609700046,17296.37197385819,3814.4380252783785,875.8024843192286,1922.5463079691913,1552.7766234042897,-869.083331597828,17289.350059176948,3834.083230653793,860.4783376625657,1938.1867585495174,1576.9688593507244,-927.8544639707764,17233.0418414663,3821.146646557741,893.8818799769963,1937.0190926083442,1714.8294227580059,-1010.4900321576919,17181.683741327775,3830.6458199489803,870.136369293038,1926.5020072481204,1479.4888331421882,-1049.6824327226616,17253.572251669,3825.943804331182,860.7439282515795,1917.5973225670198,1544.4394770549127,-976.4363226195273,17012.34528067924,3842.911810807552,869.3612023095482,1913.1469065162437,1508.2671710880759,-999.687614325429,17135.07387391709,3823.519313563371,873.9403436593817,1928.2762043166338
2172.0,1156.0,17072.0,1815.0,1345.0,1197.0,2253.161478321726,1204.2245188238783,17095.26615465167,1823.2326690753384,1348.1707715374655,1192.291715349637,2052.634340313424,990.5837915268146,17127.647168037718,1815.2947974556555,1350.0160947703869,1214.802648834294,2116.2545314552494,1211.2253225594907,17167.357041530646,1824.0908099881628,1360.449292595683,1204.197033044641,2101.0401742373124,1276.2447886949258,16931.194985416874,1840.883717113563,1356.7573604968659,1187.5086827765226,2064.935894483389,1243.1995331697108,17175.070170332467,1808.9595571951431,1339.3281227010414,1208.8032875630272,2090.8253968331583,1246.6001174650403,16994.554676200718,1819.6401245805257,1342.3184085393807,1208.113138217949,2083.305883655904,1228.2144374784573,17181.311464977884,1805.9258660426012,1339.249279890176,1194.7954566575916,2235.18683557104,1240.4639686277353,17108.74701414058,1814.4134926355134,1351.6365919787934,1197.0725422982139,2278.7858048122475,1015.0993868403433,17251.865486138762,1803.7923293415656,1342.465825839121,1193.3334725750199,2204.637115488527,1131.9800219571462,16868.87842674104,1813.8642496787343,1345.8065563208054,1195.6579129153795,2254.618701669635,1097.7427596007963,17092.324784761375,1801.7982216657317,1338.8325757528671,1199.4503756897088
1936.0,-456.0,16844.0,1726.0,1277.0,285.0,1884.7622465293048,-535.6859364604449,16797.76637857001,1715.2050919590595,1268.5016852303825,295.8949724442226,1962.5560293049198,-441.7667399293238,16953.084908614503,1730.178256902591,1270.1384698127802,270.77532020832433,1899.086107487072,-307.7298042398007,17029.829518790328,1712.5318027869966,1265.9489039595733,276.87813839880835,1783.241633184822,-378.96294800005523,16585.988418608496,1709.4857171703425,1308.996162270379,278.8826660249091,2020.7348001118826,-418.96538313554385,16760.08496182737,1726.4700117471589,1281.5460325224474,274.70987766195077,1947.6499512448936,-373.1525623057941,16969.694039098766,1739.4519001374197,1267.7668802684966,291.16081992961824,1918.2698531815158,-507.0608059464267,16924.00615548413,1736.768745073005,1280.7187813891792,285.45225966641084,1898.1786669665457,-577.2583937920125,16688.2868736795,1732.5536565855455,1263.6205450234463,285.5769060884044,1978.8784981943115,-436.1747833266265,16958.37475668145,1718.2768566052023,1283.9444311876236,282.4993424180377,1870.6423116169517,-403.59188081978846,16806.888321647206,1741.182657999473,1276.7523173676645,283.8992362768432,2006.2993335951485,-453.89884733486736,16921.522091647683,1724.652942121536,1274.5508973670094,281.23666764312424
1868.0,-420.0,16880.0,1741.0,1331.0,334.0,1893.7646402857317,-375.7317110040516,16913.884322123307,1731.7336158460275,1324.7336778892543,334.05041093131626,1915.6029487289352,-455.9005163471659,16932.687027251253,1737.4431125937856,1320.7468813021299,336.4113756847564,1953.7233053978896,-370.9530015565431,16801.261827474256,1721.215644402011,1321.716190940474,343.3264917273807,1851.2222638732874,-410.393765620984,17088.521376812547,1758.2861767191284,1319.4679776612868,332.22865786598203,1764.4142692228381,-417.35458952746166,16789.442803430113,1740.1852322169323,1325.0919079589978,338.5679143240664,1622.713594762222,-570.6881279797158,16861.28162365184,1756.7571769490535,1336.167559341725,336.3238080705289,1828.508549931367,-421.03229552790623,16946.723601797657,1738.4990561884745,1332.4666199259782,329.29358560159625,2014.1166259611418,-420.3223169741498,16942.750075262706,1734.3512955813019,1332.5468800787803,328.4477689795931,1790.554393617534,-353.58219702119675,16787.11569061453,1737.12228463591,1327.7845007535427,313.0486159287691,1791.6720177814618,-173.42612289997265,16871.106318351514,1744.7521144232517,1320.562297428207,330.2572043589158,1915.041535484092,-468.82824332496045,16950.218789118626,1731.4494537306923,1320.6669148265441,333.98124792794613
2192.0,-320.0,16704.0,1788.0,1390.0,493.0,2057.8529403377297,-425.28720477596283,16695.130774956146,1799.0564539530262,1385.294498011255,508.0678203099668,2111.108541276814,-502.4967027376632,16713.309185631046,1785.8108976822962,1382.2822407903768,492.83621385573366,2240.398697303325,-423.0361895364505,16838.14904564175,1790.1266687095222,1393.697550529457,481.2658755417617,2152.0380957473426,-340.62700543951854,16545.9767079361,1781.0374118725147,1395.5060537185009,484.0736093255836,2306.769156482131,-406.7350994621305,16696.516817623546,1775.8441784009146,1384.2468328484313,504.1011143419768,2300.704997784274,-371.8304945078243,16673.976418457856,1790.0224637666483,1371.9331319248045,485.8808340553408,2116.392520910366,-261.5004718646719,16879.35264577261,1770.6830788439793,1397.416663487473,493.10579542198127,2204.1748236645494,-249.50332763999035,16645.026341443616,1789.4686209419292,1365.2624957896921,501.0919266010515,2147.390278337195,-403.8819440931325,16349.07448460956,1807.3421837837168,1382.1325339187879,486.8391889974201,2128.195032149989,-299.8389281595331,16695.375136219827,1767.6353280219219,1390.8424403011147,495.7250770272813,2031.7858016832558,-343.48481696888706,16683.316024238185,1798.2837978130576,1369.7219807232066,495.0527925654505
1560.0,-984.0,17028.0,1846.0,1342.0,402.0,1556.4314026865395,-977.6153186344985,16880.489994005635,1852.1316151246876,1354.8352383384997,399.420846964891,1376.6473042352522,-832.3157084401915,16983.353551100725,1861.4305236981913,1340.6072322599573,392.504741800759,1408.8708507448189,-969.2151412645186,16911.96070841042,1850.3512177395455,1351.228903241631,416.765962364404,1447.2557284399911,-930.2379755554324,17067.471265928267,1840.5401686844177,1346.451099629255,404.19094000931733,1539.4653040685591,-999.8818281758964,16989.28365591308,1835.256444859942,1344.9693128251813,420.6690500006824,1482.909338824168,-891.4764326331973,16988.72342357376,1850.5548905279095,1344.1035626804687,392.5492302975098,1826.4518876001507,-933.2155921580143,17039.142309596027,1825.9696457266507,1339.9326848548385,403.2033551900832,1571.2101356401945,-929.9254298037932,17084.085180864688,1840.9869985735243,1341.8517522203576,404.3097776986838,1381.1303907373272,-1144.2552335516452,17036.35185975217,1837.9288265719256,1355.3164415085603,379.0070446590179,1704.7986295478447,-1151.2095858816215,17158.657115738195,1855.012525314623,1342.9204987695337,387.83792909850246,1724.7570495918098,-919.7936932315092,17011.885099721185,1857.551998516121,1330.8250963030769,400.73489140281134
1984.0,-500.0,16700.0,1745.0,1359.0,392.0,1963.2351210919478,-669.9034773668006,16507.68486176945,1733.5980053128092,1357.511105827485,400.29822999320174,1961.5729737943304,-637.995391529582,16858.474475789288,1759.9123908305382,1356.9167855867745,386.6434975187219,1936.1983478989184,-516.6558616565783,16488.58920611812,1741.8892972033484,1382.1137112896326,406.4775511476788,1877.1027211153769,-538.9953412795057,16620.464575420992,1754.6042315441198,1361.1502247539406,409.0388939509773,1872.0536894232885,-548.7486209500836,16703.177031213734,1727.0765698615974,1354.5835651716166,386.70814218334823,2016.8975835214526,-438.0739043860458,16641.102217825653,1738.5378103718583,1356.5282876141348,394.95832378485017,1976.4552734247152,-404.58874635483403,16643.74001923088,1736.0258830529629,1366.7981166303214,392.37576238047575,2102.2463960814343,-547.8302611989527,16805.01449488714,1746.381666454014,1352.137322360583,374.8989156132847,2018.8245198943039,-501.7013550633162,16595.51432490531,1748.3986120071525,1377.7704836560815,402.30958757888413,2008.3935287101021,-480.7465608028695,16609.66082974587,1743.2952356686283,1336.7124196542725,404.9205404385413,1790.907822772395,-570.6309257261996,16711.14901567297,1744.1340750219856,1359.6296795023845,388.15959354920966
1944.0,-432.0,16860.0,1733.0,1348.0,303.0,1919.9198265485327,-107.15640962681812,16879.034786514618,1726.1973868467965,1355.578593778451,296.3991505146161,1945.005096475258,-385.4010510192999,16770.184014477352,1735.5567880009814,1360.658130090803,284.09665417265205,1882.2830719452672,-210.37948107291055,16910.01037295065,1744.5576164738711,1337.2244516594544,306.3951704417067,2104.8630074540397,-398.2747613300995,16905.6758684371,1739.7269164166078,1343.2963753655063,293.8781275594926,1935.1711280785476,-439.3745895981781,16795.503920818224,1720.9931392945616,1356.9123220638085,299.7212886399975,1746.5825572108251,-337.2355921401291,16818.989613605834,1726.5602472985752,1349.9281714348306,322.3153843398783,2048.020695887443,-573.4769714253305,16845.182098741647,1748.1276342726853,1352.2586434434127,301.8037465087499,2131.092405943897,-672.6651568560785,16910.322043287688,1716.1159658984457,1350.7409859853567,305.4266793806276,1776.758586823561,-425.52456281192065,16916.847679283084,1724.8004771205913,1341.9902478165893,289.8123157432739,1880.684853512307,-560.3826148746057,16784.78047441135,1741.0856892628078,1345.8285581451346,297.03388964683074,1941.0769533246096,-566.5790971841695,16929.162984122755,1754.766925046859,1337.6024309878717,292.8538849122781
1912.0,-440.0,16832.0,1761.0,1355.0,285.0,1911.8142483850334,-478.058145017491,16732.609551813373,1763.8435646873177,1361.8987889336602,281.512754757717,1894.3825270087655,-555.5453563919156,16633.888542471872,1748.154797642519,1356.574759937481,282.1378795079695,1955.0931970894571,-425.07193945982743,16840.811911748373,1768.3386762178625,1335.9651696397823,270.64139112428825,1787.4364584242924,-427.43065061060776,16820.325009936598,1767.4849798070568,1350.085053185498,286.53228182662355,1935.9250545248826,-351.9722207114091,16798.9688564127,1770.2217946631908,1346.6993114944962,296.9716048298145,1929.5278490167302,-399.44639510003174,16814.544384442896,1761.7392454868425,1359.41189274231,292.68359421990084,1759.9586382338284,-447.28133872398814,16661.684480178134,1761.4753757617864,1334.6361976163705,289.04946182501055,1990.2582360883935,-510.2186704386484,16771.40597949533,1739.2566959100623,1348.6524134279714,291.5332975567547,1854.7397619686071,-432.0954567330163,16662.91664065673,1762.5428193819287,1342.68253140472,276.49565497958775,1841.6485034415334,-393.6014017408384,17069.018766503355,1769.979168238218,1355.5727449053988,275.90534605567314,1896.1175132052158,-459.05130478938344,16767.74229758698,1769.8193493340675,1361.4152565596382,268.42587541858865
1912.0,-504.0,16840.0,1727.0,1398.0,298.0,1843.2799289760294,-622.1502405615832,16836.98245185531,1734.925844738864,1421.450324661434,275.03440883892955,1950.0797703875048,-529.2768351509218,16855.06940315959,1708.709989781046,1400.9486074760787,308.9557243848675,1853.5325351061242,-593.3928160424246,16907.835441499716,1726.7497977627304,1401.5461636392413,297.0465738158165,1834.1603389554982,-473.5863565843347,16706.586110817258,1732.9890497806618,1405.3557093641439,290.3041311720346,1812.1544331225498,-596.1192872177356,16851.011406301433,1732.6534916608987,1396.1111962158984,293.58290094556355,1826.654682405519,-660.3876190757167,16863.667850609952,1724.5654727625845,1385.0428016200356,287.30563867492606,1799.4802012233963,-411.0579852236029,16781.647663726217,1738.1340363351449,1387.6366495657292,287.14418712959804,1979.51578395273,-551.7628819063583,16737.670924857084,1741.548673660952,1399.4425496561657,286.06814685315345,1974.8803530149019,-611.0154705945047,16856.822216905028,1720.884196044474,1407.2901000740935,287.97189061061897,2041.2802216930556,-438.6413056289516,16873.2655661744,1718.5080887130846,1404.2294839519675,278.78363171008823,1853.1365179314755,-414.3294499795816,16880.671972162916,1748.693199077557,1391.6058798293432,308.27334922873126
2044.0,-356.0,16836.0,1786.0,1414.0,437.0,1963.5373420966223,-355.7607700060887,16789.796863484276,1785.1747805246584,1401.0052772432819,430.7563140594377,2075.009413580211,-486.9348204541759,16870.33030203187,1781.827919149168,1405.3084828956444,452.10344443388163,2231.435635043755,-405.27930597594093,17001.44500803949,1783.0522766516217,1412.9389091689056,429.8812987578204,2236.3383821805055,-157.15784887782766,16900.50444400387,1754.7843704936934,1419.9889635532074,433.0033184071543,2017.2092191242605,-511.48354797712216,16868.184456384137,1788.152780678969,1426.2466709900718,427.2008749811534,2219.320746663381,-391.7007703501084,16865.211700577387,1788.2607826494757,1411.9646137406762,434.85585404342584,2072.9277578537744,-342.7262942598809,16781.572554831284,1787.9147363556817,1413.2028646373124,436.0832427697098,2057.4084579632,-317.06738356068723,16905.113291827103,1789.2447138954587,1412.1606924984585,423.37082787141986,1982.771794979263,-350.69408225383563,16978.505916845552,1792.7853888135392,1389.5445567104036,450.73965710040306,2142.1538980177197,-426.2431992496041,16891.71701517686,1789.134672686766,1391.5790439880227,439.66183990193286,1932.9068667903432,-327.3091276057742,17079.55523079002,1786.1417329701753,1424.4214337884,453.84203038572906
1912.0,-416.0,16784.0,1767.0,1378.0,377.0,1898.3569336336147,-387.15077662831413,16749.942230359604,1785.741326453474,1381.7440922590276,374.90266391502666,2017.4296153208043,-415.78898567818436,17052.123071351773,1765.5803368065046,1362.3626565806844,375.02638695512627,1933.5752670089043,-258.6853939808449,16668.39045588648,1773.0358749118293,1394.7033530972533,371.9199620407004,1906.2128304206285,-297.11891456441026,16828.32868426385,1772.2348889568698,1385.6033390611472,366.2815474285242,1989.1232220677766,-437.34447329470123,16754.34704030286,1767.6515213280452,1386.3606159687904,384.36343990672646,1947.692708632181,-278.65414391809423,16863.497656716954,1770.1157416338206,1384.404660206083,389.63307394391694,2097.952218508977,-397.29552299317373,16899.58650370654,1752.7138263208155,1389.5005940583756,394.63551974805614,1807.197299758826,-224.49687719435883,16832.550774593154,1766.187925804206,1396.9892431023798,359.05098239138334,1790.733085096246,-372.70644371062286,16894.44093234653,1767.6143236012945,1375.1378137426962,382.4359883557066,1842.1848617810952,-389.6974194952676,16696.432814427448,1769.640143834446,1365.536820178478,396.98056271920626,1944.872654631587,-367.26045888554813,16914.42229642848,1767.24909711105,1380.5014542000074,389.51836697919265
1864.0,-544.0,16808.0,1744.0,1353.0,268.0,1922.8976134643399,-502.6253586670057,16890.344602578014,1725.1754732179027,1363.7213301542854,269.3128932911357,1815.9602138988653,-549.8048473470943,16763.524462388374,1737.604181650798,1353.861653939691,265.8498592297919,1989.7555811391503,-580.536817845956,16756.341403418348,1752.2130787247906,1360.3624376942576,280.3576135375977,2068.455139631557,-471.6856644488574,16834.603941594138,1740.3030085096534,1356.865896732388,263.2342663223292,1923.1915652572377,-602.5459238148145,16816.61643506842,1729.2444292510072,1350.4559880761244,253.35220836666446,1787.8779228033557,-511.1170437767071,16762.14221592977,1740.4546593920038,1344.2686528680601,257.70222818648165,1768.80543258936,-555.8497121337801,16879.528863912452,1738.3927074090168,1362.802986850852,256.37202141839805,1871.9340046237219,-519.6634754345362,16874.91893020134,1741.394330832501,1361.868524388262,280.3381793415427,1596.172685451511,-499.8491176671715,16916.129719372817,1746.4672984468825,1348.6262607105857,282.0528687806535,1939.9700677998876,-623.8451097846606,16648.542955729008,1738.7705354054863,1361.6169609421568,265.9565074571826,1818.3946080492944,-596.5856514862774,16826.29088915842,1743.4780461307903,1339.4729814483712,267.62210344850246
2012.0,-180.0,16908.0,1658.0,1344.0,283.0,2287.54880228213,-185.66261410407049,16882.585532674573,1648.9783671760579,1332.6382584105584,282.32749466778677,1922.768927640912,-63.78562537187315,16832.694062715636,1637.9003125968109,1344.2031034860797,278.6583979342195,2079.241824708358,-243.3912535989346,17062.41335377338,1663.6068983274934,1337.7941458514829,276.636751066499,2107.9096492349895,-258.36956777132156,16956.765137933875,1649.66298842319,1333.4262709647767,264.6259001033427,1867.8195799047242,-128.87318820001383,17042.440630272118,1645.3710982326872,1348.994301523659,297.85466761197154,2080.6839824049757,-108.33260005588068,17029.356113877733,1649.370295963953,1349.0078214139642,284.456614788569,2039.4984683641521,-203.84415830303678,16838.01862683094,1643.396562306044,1337.9166368964684,271.57090428030625,2103.6074735997495,-137.0060778651831,16860.15300930164,1624.7219583414394,1348.7153075447113,290.4939167088954,2111.238846625259,-187.07198466759755,16883.83070124807,1649.6253320211401,1348.02625563316,280.13345367051926,1900.3146159348403,-164.3587369311132,16994.183230813793,1656.958306337214,1338.2105038521224,284.669068491559,1934.7145465503027,-72.45623615743965,17035.260297850564,1670.3415914784493,1331.988007225688,301.565218549246
1920.0,-484.0,16952.0,1726.0,1251.0,306.0,2013.6959797524214,-550.8842992552676,16958.36771383225,1725.0524530819173,1257.443490144332,308.58469007803075,1743.882582245183,-329.905642922009,16965.298539686955,1732.6456560102138,1250.9906240577388,306.3926802486305,1799.6740673257666,-543.412631256605,16786.932250991616,1733.4376921023595,1242.1380372440246,301.9053219811791,1889.169632180546,-326.08044235214055,16921.141139650812,1721.2210441537266,1235.7950005363416,324.4058671391398,1904.252624660269,-428.753617148501,16995.792291539503,1737.1296455229526,1250.590480207163,302.96841664076504,1782.856093591622,-410.5406960140703,17020.047056142008,1733.0666951232622,1256.7514955438587,325.2024892777248,1765.2678558397758,-598.0586454930932,16699.268982209316,1706.6633125274877,1244.3964371893392,305.79757871146904,2043.9211298916666,-477.8392842980872,16975.448307571016,1713.4530793853976,1246.1579462303973,287.68988728218386,1930.907362566594,-476.7437236372263,16929.303327889305,1727.3336690691349,1243.940166798698,298.5191901440412,1914.4784161589191,-454.92029285682315,17116.426259161555,1729.7612393383108,1247.4741024204695,308.7712685490869,1918.0553217586041,-563.8201927145222,16955.022762855475,1718.539156071882,1258.8389547274314,311.00147159601147
1928.0,-476.0,16912.0,1719.0,1248.0,243.0,1938.4218483542304,-520.217439783661,16911.219822863408,1732.5306684638354,1238.1920630009427,248.42656176882602,2067.0851487913596,-479.42847233731186,17012.17021806233,1719.2374130890041,1259.6995820381167,251.64060835672242,1948.5780199050307,-469.4076067977886,16801.18363465835,1734.2762545836476,1263.3129389203173,232.78306872708902,1975.59789220601,-413.11769573501203,16954.65274327949,1712.864514578753,1236.6044516661455,248.17161427193201,1862.4657447557104,-367.7877208593988,16847.948146174433,1723.4344311692018,1233.6998604648973,228.77055339379993,1943.3595177579843,-447.9521638225513,16833.56958013653,1726.096459891168,1233.079271706374,238.5782322133766,1923.0110436653583,-445.3874495744438,16923.160878919516,1720.7628760118043,1250.9349604809258,260.5994489228846,1984.3001029668426,-502.16206016526957,17022.813142705236,1711.5138457582934,1250.4158380474896,255.23334828684656,2021.6778414568944,-363.6213758418115,16940.170357231327,1722.1463256842592,1246.0423348898853,237.23147636556644,1820.5337276964563,-512.4339492997291,16866.55565762594,1720.201490523626,1248.8707132034397,232.92675761004585,2012.8712670721425,-480.4188213901472,17025.600828660547,1722.3193537363404,1241.9306020792692,245.07919145424182
1984.0,-736.0,16916.0,1753.0,1212.0,93.0,2103.445408018235,-808.0818167254969,16835.83366962976,1751.3764347272747,1222.5877596693053,66.64636516300833,2065.660185657755,-761.4381617233328,16906.614539933857,1771.1613403956258,1192.6987327034558,99.93216154339926,1772.8389859686436,-641.2586371371098,17159.826604808586,1772.7777086756294,1211.823388088847,96.79921309305496,2035.812311620397,-875.0689707847492,16801.241909752436,1741.9287018584348,1221.4427450040687,98.20857654299527,1929.7767288093773,-631.7443000829229,16841.144768795628,1736.1707412728742,1215.0548660673717,103.19222650934364,1905.6129616590204,-677.5428067497453,16864.063011545113,1763.168068708285,1212.560646140391,83.8307449280004,1836.474701684068,-683.1055427159021,16944.868983651468,1750.4743985551042,1205.5644409159177,92.59046831722173,1814.0216340057964,-688.8499184495138,17020.858844233455,1733.6396814982097,1211.0654684927922,107.593452679306,2090.748838124656,-606.6403839030334,16701.22061068896,1740.2726599191226,1212.336908373682,96.14783162154679,1828.7772121899459,-648.0637168473603,16939.370511608264,1776.066587396584,1205.4559231085086,112.56348108087121,1982.1556219853114,-670.8815407454465,16711.279396528782,1762.0845769099672,1224.1622226064567,79.321250029557
1896.0,-416.0,16820.0,1741.0,1394.0,293.0,2062.7343436979527,-405.3813964725476,16852.33998664842,1733.132481878414,1401.0071023745236,310.37313789807166,1856.398113814661,-356.48421854223903,17010.644834544684,1754.3490750420085,1410.3518233613977,298.96052064379296,1903.5434404579705,-516.2739237892198,16892.49349630714,1723.922116244147,1394.300773094051,302.48668706144315,2087.0129141658435,-355.00721717631853,16792.130352238826,1742.1625436500572,1392.691267993097,302.2719505484338,1931.9883819742818,-238.3466901785901,16891.902682591935,1731.943144021889,1382.6335565861616,286.88470219561157,1870.1451688116992,-303.29554071973496,17069.091075106306,1732.1321847731979,1385.770825547278,297.4632355090768,2057.413404262314,-553.6813704752573,16905.79411328979,1736.5323480379268,1395.7168315237097,293.14686288220577,2007.7381285385034,-395.82162589083794,16923.633112392086,1754.5369592171487,1386.3458335595515,318.5803975906577,1921.627041953259,-361.85853463045817,16872.936879123925,1733.8944912818888,1380.097604896529,278.3774360145546,1743.8967935332141,-517.211290305826,16898.986197465736,1736.6672486047953,1373.8327073369082,311.25178232618725,2093.992182098293,-372.1863945245155,16876.55517816289,1749.1696159787828,1393.248344359113,280.60661016828675
2040.0,-644.0,16716.0,1661.0,1232.0,383.0,1948.7521306151727,-535.9486093887917,16774.931585956132,1651.5443626631468,1233.3984926011537,387.1477574397814,1937.0032147025368,-545.281604346276,16758.81205274766,1665.3682035004604,1243.0406945373447,382.1956459811306,2003.0155375872155,-523.160949072878,16740.216833326227,1646.647867841642,1228.3383346952846,365.25497992716436,1924.2073126790633,-799.5164183557071,16611.284002755907,1679.4685102661504,1235.1616250325324,380.44705348399077,2085.810998550686,-669.1035317488557,16669.975749752353,1659.178373547079,1240.1350040025466,377.6211982350828,2061.477493225702,-853.615315872942,16624.20534555132,1646.698316814512,1237.8438403615894,393.8829313592701,2079.083974929277,-590.04674199304,16607.489656842798,1646.0479884126119,1225.067991936051,381.07291393015515,2126.76341934764,-726.5581401299472,16578.780931576774,1659.833995461144,1253.555027166994,381.0753505630895,1911.253423109507,-593.7649314827136,16611.250051890824,1684.3773702745464,1223.129569986968,378.5870033360532,1976.8163960700729,-575.2926590076075,16696.908209262238,1658.5588882975915,1254.3180831545756,381.21636836898836,1995.1824548947052,-517.278993596636,16688.544733585353,1657.4458571870825,1210.2943328579897,386.4641567529114
2244.0,-448.0,16444.0,1465.0,1175.0,-490.0,2365.3081246161405,-462.11022571394125,16323.041075667341,1478.6142114682318,1188.8298026072819,-487.64922826677923,2218.992637239776,-547.6072356157023,16295.898883860276,1455.1021190361053,1187.3116053158878,-500.55743059666645,2138.746233025368,-365.9229750094561,16521.215556180334,1463.6045825683723,1186.0102226462004,-494.3371290399006,2227.2903367711433,-345.5309995565201,16350.862010264273,1466.6388296781154,1178.9657207389487,-469.49286215003417,2166.769785021722,-356.98799635920636,16522.531942548227,1459.5543942076133,1162.9548819555594,-489.8992586817093,2201.9025138494226,-550.6937326715893,16351.678628899743,1463.124441829094,1159.1099238285726,-496.65019672793585,2313.889120800517,-395.21963903999176,16374.113012099622,1472.1999589363893,1181.9985871271913,-493.7071216730261,2234.081996797976,-389.3892680404307,16446.90184727775,1475.365979899544,1171.1164177274384,-500.5892310251879,2125.5810699610583,-669.0717655496206,16363.813197559468,1480.2881763030985,1185.2095635669796,-477.3560603640251,2229.374223676707,-340.4343938326685,16445.739425918462,1474.0027385497976,1191.185808084639,-488.24790858228414,2160.80423763861,-443.9243152778001,16349.875429435202,1468.9496999959572,1185.592046290512,-485.7917737609441
1972.0,-328.0,16868.0,1602.0,1403.0,-2277.0,2043.1755510527173,-178.12396730022704,16738.700138367276,1596.1809796511407,1380.7542848651854,-2292.798740184773,1959.9940467057133,-425.84304010711577,16859.781554732017,1600.2680752828944,1408.3230015444024,-2258.0238224996074,1975.4853277923783,-412.51907860452263,16945.62818678997,1617.9518523426107,1383.3211973132572,-2267.80008036158,1928.2767251249825,-427.8422696247791,16850.058049375853,1603.5890231259336,1397.234559033271,-2288.770830261258,1774.7620416662337,-302.32662942949526,16771.464094061266,1598.826020907731,1393.4845573867472,-2285.6132549702324,1979.5189336439137,-301.6290879962777,16995.74438343865,1603.5387211234713,1423.7410821123103,-2271.201187624977,1989.9575900603209,-333.7477264485054,17018.13442050016,1621.0843752282622,1410.9653290145939,-2286.479416347329,1943.8174934205767,-398.0444345350343,16766.791471715987,1595.152594905396,1402.6342813635542,-2266.3909222990633,1866.0595676144094,-378.94763500458623,16951.08225695958,1608.0473708808834,1419.9839211386002,-2306.152045742406,2131.7932228325994,-191.63840238324505,16929.862602206253,1606.690968435796,1410.4713728915415,-2273.69273216036,2189.325829231539,-341.28111934922134,17013.493905884574,1596.7521006613542,1387.0465470791316,-2276.7214379957986
2148.0,608.0,16956.0,233.0,1650.0,-2942.0,2188.1387938318167,740.6501426107897,16974.201535814937,226.95831156284845,1641.2707386825673,-2932.781413916635,2014.4099786160034,643.9919651179007,16667.087796287877,227.27092094491547,1671.565523228463,-2943.1804818747296,2340.6107437951255,618.7473993693119,17034.99878496117,239.6209723390104,1646.1495797866999,-2962.1098289988845,2166.8988513300706,684.1601784145009,16966.73007644346,234.41685605276624,1641.9757246631923,-2921.0499288348633,2175.9834179007057,509.33772248342694,16705.686922808058,232.2982439960135,1657.4533656808605,-2960.4199494418867,1966.1600879959706,590.3845012814481,16985.207576058565,246.25765554414636,1644.8724364877144,-2932.4773701782287,2164.5393767149117,617.0104133292549,17028.092673682262,232.17142694045324,1637.2977247822992,-2932.761061632606,2117.962219401915,621.8914534667327,16980.299742944357,233.82345843300416,1647.7745857143746,-2942.598897238775,2284.706835972566,516.2054535031099,16838.937351360742,228.50990179516336,1654.4955312497375,-2940.9527647831437,2132.5874028393655,706.2022614242302,16936.960061380323,231.51836577140188,1653.3043967387202,-2931.5732551691844,2260.4325579628608,612.1726140268888,17076.7243962337,240.97621270054407,1652.529042688776,-2939.1293787313675
2004.0,-1924.0,15344.0,-749.0,2039.0,1069.0,1838.7472508548497,-2224.1575471846595,15486.016013419363,-754.1954145439446,2043.6440620191597,1056.9348482161208,1977.8532575486133,-1892.4028134377595,15368.502987337502,-749.9290540088034,2041.7313796660721,1058.4280363908588,1923.4137718485902,-1985.5000186584682,15356.189691084966,-756.0014349456923,2054.8798585239465,1068.0144096189113,2058.8417699282963,-2050.465314590429,15413.095240726125,-748.2744512142078,2043.496500379215,1082.807570054429,2124.552426439981,-2056.01031125535,15383.079152604574,-738.3816282235272,2037.9951617005675,1075.149298050383,1924.419923851111,-1863.9041182272351,15455.663148037518,-742.426539678671,2044.582205881448,1077.9768001877062,2016.7000132142257,-1845.331270444477,15442.429769691358,-752.383131550211,2031.0088391420968,1064.4451583036705,1882.3876348649626,-2006.8825148689098,15536.80560701794,-748.1430142091606,2047.6153280480614,1082.8600325125508,1861.624752278069,-1983.7539713633118,15578.1055084987,-736.1200964378185,2038.8979375705535,1065.1467882457052,1993.3666789708998,-1981.6770855117625,15520.133479599512,-751.9559469209172,2044.6516216073917,1051.7631945530236,1937.0254971418733,-1857.12012622731,15345.905476346115,-764.8065340166944,2039.6325698965304,1092.2818978359264
1888.0,-1276.0,16144.0,5045.0,910.0,-129.0,1770.2830766825693,-1237.110755584991,16135.387901100554,5051.641610839474,920.3542731395421,-121.50627057050089,1865.6457151431996,-1342.7750603206302,16039.385811436858,5037.776414046822,905.5686162928765,-127.78455836545795,1894.023644392367,-1359.5638873230298,16010.188417816864,5037.212642196984,902.2568538607926,-108.43928131232977,1956.2578853930636,-1344.1242145501544,16105.923971914252,5046.138227500991,919.3642406791379,-134.89626447245618,1709.2255193354858,-1284.227871959077,16089.827639750007,5044.75333504828,917.2502599263331,-123.27246625917982,1988.246518691043,-1084.2643503870133,16106.017145806893,5050.552486972606,901.7701061351821,-125.37337619182698,1899.6837918825304,-1177.4977587729934,15921.985291750716,5047.552906197498,906.6341901328724,-120.33716260954466,1867.0173887996411,-1198.4663010812567,16198.551813497896,5051.864044394513,914.6737306755782,-132.79769797843667,1885.7866223729527,-1397.9599796388954,16240.901620176539,5042.771461743525,913.6779751577604,-134.3229299465625,1763.9259198262046,-1258.7824853935722,16146.12276819758,5058.315136393291,905.752997094363,-142.52444627032816,1862.3126646327123,-1275.373859013676,16113.822965084215,5040.524858624758,896.405361891883,-144.7851934415129
1828.0,476.0,17184.0,2769.0,1256.0,271.0,1700.9217580581817,579.5151423637963,17057.053458062994,2788.6882414590355,1256.5442583821352,257.35769496360354,1884.9702918936812,449.0722080831245,17084.89804938678,2785.3608579396264,1250.9483160882144,290.5543931456331,1801.9471803148197,624.40738556621,17186.530131416926,2774.20065357065,1247.0020399886353,252.00702454342084,1884.1890093035183,394.20528181918644,17244.054057143676,2772.5303423611826,1257.4660221439856,263.83642251244476,1955.0174941820915,233.91977880088743,17200.288057049704,2784.507721339782,1261.6561774184488,288.05204070148636,1819.0156722375916,300.7863071188938,17230.948124778202,2767.3819354106436,1271.2308590335067,271.11372751307744,1782.0084977650515,467.77552093431575,17108.2529076376,2768.73505887414,1281.2943987469437,276.20419153835,1819.5240118392,411.0925270501154,16965.924068589196,2787.9065976075694,1250.209640113414,299.08796398431076,1869.9772862545,386.23779513970754,17102.349850415092,2777.2708813345625,1259.9124101983919,270.2778154777181,1796.8238520497277,345.9592227786445,17150.80222090984,2769.957096653632,1246.5022303506696,273.02345261823297,1834.8053536538505,474.69768953964564,17299.604139426094,2772.6442252811835,1252.6953838264174,299.00972213709287
1976.0,-168.0,17052.0,-77.0,1422.0,501.0,2027.322671678528,-124.12543625611141,17066.747324960194,-91.91310687298505,1428.6360205309907,495.75110671470867,2076.1381267689767,-355.60967641607544,17089.48762815885,-75.17302444958713,1417.1325823491275,482.81607861330684,2190.4131851294883,-176.13153577245546,17017.09099535688,-74.07393344810265,1423.6730007400886,520.1124532061694,2103.0663065122194,-65.02502655657244,17101.865586624936,-98.89391732282385,1419.3958255956384,511.6088086304555,2039.3358395747168,-260.0060529480644,16960.830870448626,-78.19062188256345,1419.310166611773,495.20585167135243,1786.8598566186513,-312.56774243862725,17056.648735612474,-90.18659232129795,1414.1429095929275,491.0096314655733,2075.4347175827743,-50.16092849431125,16963.628934372235,-68.37220639149541,1437.251732157825,492.6087246899774,1879.3172579929474,-137.72702196715073,16978.59592464859,-74.59408233202947,1411.9572358721414,501.14122553997595,1896.563324360684,-218.13152533816492,16976.21674434506,-73.78567392889047,1426.5853191158901,507.19440024520725,1971.8531058623785,-350.50876513548735,17052.364678051068,-89.94241158180546,1427.1740370998361,496.42402788312944,1898.568877223426,-297.9549500054895,17096.536704723883,-79.53430353887157,1433.608239964152,515.0225008034561
1924.0,-1744.0,16796.0,2086.0,1464.0,228.0,1787.548121726926,-1767.9011014617531,16817.744915792566,2100.2201650080106,1457.7999161730065,239.30886434133026,1938.1225712115395,-1723.9466179081273,16705.449872836252,2075.982863422068,1468.3342141701971,232.48552835623173,1924.3253460335086,-1917.316864834554,16939.512782096903,2089.633237564234,1455.7267990640205,225.7953899289882,1725.4397863193146,-1683.5429979537255,16801.917286711345,2084.0572370583473,1479.1393357214292,211.6441435535836,1980.9622937760894,-1787.926553862507,16604.20716653999,2085.7528240138395,1460.9815512461469,231.71408651193883,1989.970207954809,-1805.0149485683842,16703.94950472904,2093.5330494431914,1478.7698576878372,215.7598207900023,1929.4436957115242,-1749.3861640886778,16761.82401558945,2098.58584346618,1459.2197331627694,233.64815156221485,1887.1752696592362,-1643.6312275303578,16883.08948602587,2096.2707769900403,1435.0302612041064,219.27894408506475,1949.0782814098288,-1700.2768331523907,16869.182703940456,2078.101299830023,1464.901967290073,225.19707222413956,2105.542469635527,-1684.5674799623916,16880.940600741495,2090.942003613063,1462.276988768947,216.81474014996923,1990.2619770633842,-1769.8144317358572,16733.39374352244,2079.9846234128695,1457.5690835930732,231.99369254890172
2032.0,-112.0,16876.0,2167.0,1294.0,221.0,2091.364524547199,20.278769984672664,16927.610042573684,2170.1534919468036,1302.5360237678428,223.23952616081618,2196.60206202164,-38.320709335605756,16919.875213177325,2165.268187145443,1300.5580502515568,221.78531577498597,2473.525834579137,-335.12015137532774,17010.31606658523,2159.451113787225,1312.7240928982042,219.07884811339326,1994.2313576689262,-186.58216672737518,16756.302893694876,2162.4989242319166,1293.755035808968,224.5433576682419,1886.6784993066055,-182.63028656650192,16662.317936596835,2162.5125920984547,1269.8061602571363,213.98630254462284,1987.6092427093402,-167.54867945669048,16858.97308311419,2175.3518033214827,1299.440155091613,226.40567742103067,2030.6014485749702,-100.64760428848251,16726.49096028185,2183.9307665923106,1295.3115353674868,245.95702681113116,2116.5951466636548,-68.47389373583293,16758.31925591189,2155.466844938081,1324.0777201403987,233.31299766739048,1804.8761710815882,-192.18493802576782,17019.265729763836,2177.7556694204222,1329.195335429291,199.33411214268628,1967.0581604091533,-182.5807740941336,16725.602694352307,2169.764682095961,1298.0776342070803,233.7410861898774,1997.339082752916,-205.68532044577424,16918.68712342936,2177.5509176787423,1285.401001679828,228.6235411113507
1812.0,-436.0,16932.0,1047.0,1334.0,351.0,1693.91615461816,-474.21844343023326,16853.146634354453,1050.9634768008839,1323.601667491066,373.4645480099185,1876.2982999183646,-350.2830559689731,16749.210869858733,1044.1927848274977,1344.5109142847873,350.6566166129807,1710.687527000429,-423.8193818464489,16881.37337039625,1052.019703500298,1331.8472038564912,327.88956008189393,1629.0519226197966,-497.3450941708326,16847.83895595689,1044.7257406833803,1340.27776004366,329.2245684775795,1907.1499082498515,-530.3105005338041,16973.432267210505,1030.560878437235,1336.1759063215327,359.37007274522483,1839.8762465111995,-429.9410565857131,16918.01694532997,1054.650403387622,1335.1577473768916,356.4606394966089,1761.92813906033,-551.8171152070441,16991.73110171871,1036.3354140676397,1341.4281901153572,362.58628925698446,1723.066719544496,-395.029375945309,16881.959728732112,1046.3383993432865,1335.9455367034868,349.4486328310998,1865.0676299050294,-385.41549525155835,17017.792083633864,1068.5812331050267,1330.0452673149807,345.24230620613093,1820.1755477522051,-303.8709186898757,16929.502377479777,1055.814070847005,1325.9740378885283,339.47212249729085,1863.0169826967624,-391.28623873515915,17197.57911173206,1042.0062428049625,1335.5462193844262,358.6222719531984
1736.0,-1192.0,16980.0,2011.0,1273.0,183.0,1670.086161611517,-1153.3534032528687,16999.26961394698,2015.217447275369,1270.5459180348753,185.09085831836902,1709.1489298734919,-1183.1138398563069,17037.63563870644,2018.9896244967201,1263.3701416536965,185.58633095872426,1810.0749106513379,-1134.8651358755096,16731.279017512617,1989.369433203344,1265.7535641354505,180.0116727554401,1678.4026011227247,-1109.5666554332115,16925.821107927884,2001.836169636841,1271.7696452405626,176.77109217904845,1716.3334159519254,-1146.360760982306,17038.942028595666,2024.4133871770018,1280.909705038957,180.6094842141161,1875.3561717498812,-1238.7873047386752,16980.85260861581,2038.0896091749464,1282.9888666189572,179.1616673611507,1740.7113570905285,-1218.5925399177859,17093.563561745807,2000.3429112982265,1279.4552999381058,176.9861782187085,1849.527102563057,-1209.6833772612245,16962.42970827546,2006.0438542260777,1269.0231131776434,174.88956816555253,1820.8324754086668,-1290.4927884525014,16981.987041535107,2030.4233574164234,1267.719759728654,193.22383115984243,1788.5005976168347,-1254.1048880569947,16807.832762845403,2003.031628568567,1290.5351678707887,176.8079945949887,1806.030904621233,-1187.7887255326955,17069.501143632595,2010.4530570588263,1277.2961647666386,174.6923196262838
1976.0,-188.0,16836.0,1829.0,1348.0,333.0,1920.2007291871394,-148.69141483918642,16731.882418172103,1825.0849982619002,1346.1565916125899,333.8636425948941,1935.7835347792675,-293.73599068405593,16827.882611816764,1831.6174748281117,1345.0146398515797,322.12693001642435,1768.278202552371,-117.56477531766888,16918.019290948116,1839.3058599360645,1339.7108431443332,325.7313696873731,2039.6102973827674,-287.526846819437,16883.415613532004,1825.3256224758306,1351.5335736258653,350.972877471731,1926.1069059187312,-224.90358658240754,16673.59105424491,1819.0178033218654,1358.955186771957,329.89681885247506,1930.0231063224683,-212.0986005225968,16924.117717032037,1818.008501027591,1365.1226193199382,320.9670302690325,2103.7834475904288,-81.6855695769619,16633.86088052252,1828.4385725984087,1321.2255547311513,336.2665861768106,2278.50672203176,-152.53995900186618,16837.80208482854,1837.141072212684,1358.9157944424853,332.60845872013834,1915.1613751335303,-46.49082317229016,16727.425160116967,1832.860205391689,1353.1864294603358,326.0378474473962,1876.6480296678071,-189.17775139595372,16697.494517902986,1831.578580429505,1348.4184956394004,334.40239462229215,2045.127078930485,-191.23737293309034,16764.019992527963,1817.2504800560089,1347.5877775461017,327.8878536006097
1628.0,-984.0,16988.0,1285.0,1373.0,450.0,1657.3523406876932,-1086.0891770567912,17143.85286856826,1273.7287665325211,1371.1107526441447,453.6590079806476,1660.0831146150417,-1069.523136834926,17158.293636989394,1284.0792854327142,1363.2046566449746,446.75392261049194,1614.0359079167192,-997.3500589401814,16890.834833590434,1281.4754822642528,1380.8914771062343,451.47921293919086,1606.0691236739995,-1042.293326213903,16959.23992151252,1261.7898786421551,1379.3135556281175,448.1294077861871,1560.3801619158946,-899.0870135716577,16904.655801289646,1294.5994231494283,1371.4439849641092,450.66348387439916,1671.9950459920449,-954.0837455489822,16875.43479728634,1270.5808467666793,1380.1706733471724,438.88542551296155,1607.0311076196988,-953.5634157392102,17038.369222598056,1286.4316576266258,1368.4391939533527,446.51145647383703,1466.1185934882778,-957.8885680275189,17019.58108700689,1292.3835030251325,1380.8778491789406,438.0888139064499,1545.4866727690917,-1112.6206455460026,17071.427710112825,1276.0644993956716,1353.3069181604892,443.75428025787147,1746.8506249872155,-904.4147493427661,17015.836233959337,1296.202858967898,1379.9693504348165,463.9917557898942,1600.0916665314517,-1117.3263728505174,17041.390561346965,1276.6982697975352,1367.6777848287084,455.1368918497384
1928.0,-456.0,16980.0,2156.0,1317.0,239.0,1996.7297285763127,-664.6034650372494,16903.928598983304,2144.5935437345684,1330.7304281477413,249.56847408377845,2036.8858276211445,-517.7704517563876,17084.77223341329,2152.6150379832084,1311.9627489350196,246.7219873038394,1790.5792461425553,-405.609158871667,17044.154246868708,2156.0901449643816,1323.2408114145233,233.1184803025468,1900.5825668031555,-274.413987598803,17080.220248345722,2162.1152875807247,1324.387721273224,233.33683793439351,1845.7548987693626,-329.92340098976183,16861.277887602228,2165.020854579303,1305.6497609446735,251.02923141333386,2023.1329576137093,-399.7158283330011,17130.57526013779,2163.292510744644,1303.9153363725,243.03987771320183,1900.4712057775075,-464.61435978478397,16938.470823181582,2141.53297046191,1314.3634608227205,225.53849745458294,1795.2753055818653,-565.9864448108716,16831.847088325045,2149.560456465302,1313.5472752905864,234.42134849917423,1945.3038214703565,-391.77753841806026,16902.392980139717,2163.980110404551,1314.0706071921745,248.6269888433599,1932.5681233117461,-446.998592854628,17004.225138591326,2162.2595173637665,1338.9300747203786,241.4940881807982,2099.735010522143,-356.53139704431175,17125.786005506106,2155.3202970329635,1320.5663956284254,237.0146540667944
2012.0,-420.0,16852.0,1210.0,1376.0,381.0,2212.4759106161205,-357.9655078162119,16853.2132876068,1215.7558201620388,1371.7987049403916,389.4061900929446,1989.9269237345422,-410.77114902728647,16927.791575973795,1199.644340085878,1377.627763991533,381.43954634682933,1903.2155904201145,-338.2531062677905,16810.580737289874,1208.5805824242339,1379.6312859807645,382.67852275261833,2135.1373600158836,-465.01283396217514,16902.799222689962,1226.3504750890909,1378.5755173305595,358.1671213052342,1757.226476363455,-378.5333123011752,16631.504837984754,1210.8222382061072,1384.9865234753102,390.42371202560724,2039.9844072768965,-397.768483438916,16842.25814738916,1196.5128588930174,1372.4711121809228,375.6185944361524,1949.7681254963827,-438.9247053171485,16902.561066623202,1205.109833933454,1365.385480960239,367.1289700112629,1866.2862718118854,-432.8935781253863,16878.593140271376,1200.282871097119,1365.701906630812,381.6339641755622,2034.9226305462971,-405.29533375993395,16769.7689741064,1212.4263493162002,1381.0704282911267,367.40701209531795,2001.564236654356,-327.75634215784095,16850.978005262885,1197.7618566581946,1368.0532166027142,375.1577273142758,1990.4207477220216,-509.2047060529791,16836.5453206886,1224.7062071375567,1372.665299941091,371.50964299405547
1856.0,-1044.0,16968.0,2046.0,1311.0,134.0,1714.2426752410697,-898.6238569103108,16965.762387150935,2053.544234597225,1312.1701835748447,142.7717147738734,1879.7646539939412,-1221.6608422256472,16998.723913580114,2042.355771470525,1309.1827158258868,151.73833988267324,1890.9057505104363,-1282.985389561285,17152.052858157032,2052.724008159171,1307.629287763782,118.37675186567171,1821.9704343489705,-1031.0500938835346,16844.340444803667,2049.3869784214826,1318.348036994377,134.54797835634014,1911.6571243005505,-894.8163854798768,16946.63721345702,2047.121895459901,1308.6292087464933,126.95811932212462,1857.5678065138156,-1160.6286640378019,17211.857671513324,2048.4177643001362,1316.347642592707,145.54927407965684,1725.783661123905,-1109.2140310537782,16847.551650198333,2049.1698008294147,1296.8063245385422,140.2430564762694,1889.3199352885006,-1178.196412274764,16982.061089157043,2044.4127843778042,1303.4595022391627,128.63495981363843,1777.6912675795045,-962.939596569219,16922.169736522923,2056.2650759040166,1309.021323832628,125.93051197205759,1755.793690070701,-1026.1650183552197,16847.354091356938,2035.4558422103557,1300.0693912764527,123.27343679340832,1932.9603543035614,-1058.2694811906963,17079.68461315292,2055.208548549573,1318.0397586409201,147.53696158606846
1948.0,-352.0,16948.0,1568.0,1301.0,287.0,1914.9580876622579,-477.2172960282701,17093.48120393356,1574.742286455606,1301.7271695576014,276.1495425175252,1862.8548683665633,-211.4892287369933,16976.423226652645,1558.366944294237,1305.5538258135405,282.5789400774996,1912.4859876234523,-498.62288660226204,16827.83445256692,1584.8540916195784,1293.3751441771938,291.1478291980508,2069.4532409941294,-282.6541372864333,17046.377707248197,1568.7564229150153,1310.8814084071375,281.0648698995307,1902.9951019758364,-429.26587390829457,16953.90831744268,1563.5787686479123,1305.9696401564488,281.3365054703288,1855.6575197495906,-376.1819923608305,16896.929644025888,1572.6184076718728,1318.0744677456967,280.94992369537687,1976.146406315073,-260.6428736272751,16958.49752872191,1557.65520593638,1297.5047462166413,285.0957298421038,2103.566150996254,-242.56153237538598,17017.53102716153,1568.5936575088251,1289.8647349326063,295.93445406796525,1976.3209942662947,-410.0842900479533,16967.2154594028,1560.3596894392829,1301.2115586408777,303.3318192322501,2020.9886071890685,-216.43669889045862,16755.073923181237,1572.319228787227,1301.3231559197807,280.81890097877744,1957.819747524556,-390.50565859792636,16982.96239336898,1571.632315684436,1316.481498635028,298.52535784718276
1980.0,-868.0,16812.0,1795.0,1319.0,283.0,2117.192163905563,-816.4187170566938,16722.907606943812,1808.4366126066827,1338.910167524347,282.30524487409633,2078.1394827413646,-818.8210401947811,16753.410160013093,1787.564870750082,1333.0274294139324,298.30099042915026,1858.9591384158477,-879.8521349196103,16766.366136553468,1807.4476881114194,1306.4951375349126,296.12417093651146,1935.5740524732519,-879.0556852940258,16829.197974800594,1806.8318300900894,1320.0962098540206,280.32903128862756,1904.088956016281,-763.0078217020981,16851.461054303094,1784.6465962062555,1324.4670518912012,297.1975165639684,2021.4663364775395,-759.4836235915778,16780.204590511275,1798.8715938470812,1317.7768703883653,279.35473262160394,1814.275688155416,-970.7774800879868,16888.36203161543,1783.9550644298026,1334.1866439551322,287.1711017441733,1774.5039781503165,-865.1449081936154,16670.805098430246,1781.8143428482754,1306.7712495670094,290.21702658785875,1994.1910722991415,-857.9961603992988,16734.112212485616,1800.9574318415239,1323.953065601823,269.51940368596473,2091.928024783953,-916.9868707211868,16630.19018250085,1792.8178002350423,1317.2998342572914,292.3626496750565,2052.279408044783,-920.7941862613069,16813.683692094608,1799.8012689495922,1303.4169730980939,284.13359045605335
2028.0,-448.0,16848.0,1830.0,1346.0,274.0,2023.9533993201792,-469.8937899113003,16798.253278443353,1822.7825811059824,1359.49616940333,268.10231698784816,1828.6230797873882,-550.9664133023939,16652.550416012884,1840.0825409448962,1347.6841517462447,269.69755619550494,1986.823556199447,-375.30973118437475,16946.16612425717,1831.183001714869,1360.4859259786392,270.34782446262057,2216.865241183753,-453.0794945346019,16799.7434188795,1825.8131472633256,1335.0501130602172,283.7714846020225,2033.403838827083,-562.4021248755196,16816.429417661773,1831.8668109871312,1352.164278941797,276.6198207040002,2074.258480045608,-613.7669620173122,16852.064290571263,1823.2496277973923,1339.5043312554114,273.94152827373944,2124.3627999139967,-642.2455029482703,16830.742138700705,1823.9717212000598,1347.217431673414,270.3442174068844,1950.3359107116214,-474.31094651000257,16778.40491903471,1826.3269923408131,1323.5254096482754,272.46506509795387,2153.3064113073947,-385.9373219216985,16999.260058365424,1825.359769973307,1342.5153503399497,273.6554722662384,2017.3409347154895,-311.86250830414986,16790.48694993573,1827.41052341231,1347.3998834106544,269.47826019532613,1874.5660156415854,-438.46249667270047,16714.94611121541,1827.6492316602655,1320.4993706729406,273.57087632365767
1968.0,-608.0,16796.0,1580.0,1398.0,321.0,1990.8021378358299,-543.394486359987,16805.8543339356,1594.864924849783,1398.382762208924,324.0581993009507,1896.9439349490924,-707.162054119624,16685.570167816666,1565.306822703523,1391.1291968279556,325.69596121770303,1979.625315293278,-643.0121916923168,16887.64215655405,1562.707527605142,1421.9568852715784,311.6113658252134,2100.2902629515493,-475.18655606414274,16841.423477970147,1593.185563816178,1403.8297728689545,336.50777332476633,2123.918820372125,-594.5401931885901,16754.730465736022,1562.046915613269,1406.7300312127052,320.64341110116357,1901.7065529247168,-648.4755315005375,16902.62440385199,1558.623563549072,1404.474042949777,330.839705360553,1874.1473955197387,-460.9787208448422,16753.950449704556,1580.9153113831146,1406.1680383463388,307.42472632662555,2040.2189817476935,-573.817429566255,16759.446463318105,1583.736753972994,1402.5293385745074,322.67201373083543,1977.1170843122675,-571.9984267519724,16815.189262943713,1582.4587811112456,1398.1253090608,323.4750698978268,2039.198281865135,-710.9559577652418,16950.301524732586,1578.9510790044617,1407.1866693638042,330.1268033732862,1955.0911640544166,-594.5226107164879,16792.086260375036,1582.924164287848,1399.1547406729403,323.32760011936864
2004.0,-764.0,16728.0,1777.0,1242.0,-159.0,1984.9851766266518,-969.2983717315564,16612.87717180812,1762.6558997429877,1234.1417177574842,-158.98294004040167,1890.5518095928915,-895.8216904564832,16642.10257223699,1771.6267582604753,1238.9860865025241,-156.44306163067677,2101.728772748655,-680.0003883787426,16633.372107122785,1776.282420889054,1229.7573486335066,-149.6446258463468,1846.9915532539046,-666.3660973056894,16839.64312186383,1781.5681959357748,1239.4483190964918,-158.10114386068983,2036.723831752869,-720.7573007115124,16669.557502626343,1781.4151609646754,1257.346305362759,-158.353927141777,2025.1735890217506,-908.3771464245063,16906.27464799606,1782.8800192840256,1237.9559754064196,-171.43893000625133,1974.9807067085126,-669.3938244477139,16677.858670641013,1772.3347437874488,1232.9121296435305,-151.48957897897745,2253.2293499215893,-864.5915337606091,16917.26599433664,1772.532788132989,1258.1542223940448,-155.62232249350006,1935.9883286946722,-768.2184447220005,16832.842401336085,1776.610169027551,1238.7636463854087,-156.74280884654436,1921.8982021748607,-676.9778022632518,16763.014004569945,1794.0227358790937,1243.2532581373796,-147.00673969689876,1985.0398346164086,-950.5488701471016,16812.13840208459,1772.6817334430798,1232.509562293886,-163.00311233714694
1880.0,-576.0,16944.0,1638.0,1408.0,295.0,1914.5655572987166,-590.2838403355096,17001.30255742494,1645.808174807691,1402.6403127228696,278.78344186485447,1690.8518669870741,-376.0675057767605,16909.520886723276,1659.0675220323974,1415.4861951740813,285.060386715685,1708.912268061379,-674.8375427245439,16919.790401547947,1634.2798087364574,1401.7500224126582,299.54054318557144,1905.722823816645,-648.1595250362683,16867.091922407366,1633.9003793794068,1411.4210903537385,299.7673958190494,1941.3574669199631,-454.7082511231807,17033.207915258256,1655.167686246236,1400.6002984485638,298.25913830915624,1784.4246707445836,-479.2584126395921,16877.602715974986,1655.0622737284395,1412.031731252631,288.49621720663737,1906.1178613091279,-739.483350691093,16985.5109613949,1618.2321869451616,1409.293174129163,290.84148866057774,1630.431212968441,-448.0411859114076,16875.227800929853,1631.0838902219978,1416.300857676164,286.66920289919665,1876.413255526528,-435.9509747058347,16842.41421266111,1659.4769863959962,1405.4299736239184,296.67398220590746,1817.1298687925628,-749.7946420023477,16934.61874925477,1627.0733888628429,1405.9315618014616,312.0387167972107,1800.666734731401,-641.6026449108606,16890.173649801058,1622.2074353728115,1406.9613164429757,297.3929532640972
1916.0,-764.0,16796.0,1879.0,1366.0,59.0,1882.6761112187355,-645.3331001450819,16729.645307360453,1867.1436976199222,1367.406344743,49.41306490656359,1931.4523858463733,-771.2621324307529,16750.421445362757,1890.7949297970615,1372.5482186124805,71.1949395120786,2087.233309953662,-482.91432524448715,16816.290831331673,1865.1212499376288,1362.7615606868449,75.06504121710955,1976.4815809681158,-792.8327470365012,16718.12756381368,1883.9714655862422,1343.843705540718,43.1605101341645,1773.262233348869,-833.0215377119987,16884.833287692978,1867.293495854855,1342.7579400695454,44.41408622539941,1901.664501770197,-810.7040660859889,16810.600195607454,1884.2052976586313,1360.7482060254176,66.60980275468472,2091.5538004397467,-731.6626543070904,16708.27260347306,1879.9745905142381,1363.996219745783,40.652058444383584,1997.7682275194154,-717.4047201164874,16757.238924230172,1865.798879995271,1358.6057018854044,64.75010421408065,1899.8861571869347,-622.2352600651373,16847.82917623554,1879.951420245565,1375.8152136584863,55.839201422297066,1774.9943155586823,-699.1535960825281,16665.967866236075,1874.289156537602,1365.954256626817,53.49054302305521,1852.3903148727125,-822.3742531006242,16775.02475406925,1899.8226845974266,1382.3810616897633,70.82688292760002
2140.0,-60.0,16980.0,1931.0,1394.0,223.0,2251.5171737088085,-55.397211212559135,16858.927778327925,1923.8925530483293,1400.5665088243093,229.10231619401947,2116.758903089232,-3.1810939285884317,17054.436238077047,1935.4713870657406,1406.1538536950168,221.5890567385372,2009.4324645306722,46.333395560475694,17078.79182698289,1916.4684490593015,1394.4213733467705,228.05084560654544,2050.895865139102,18.47327642224768,16876.84487215558,1919.9125632841917,1398.2770362303913,198.12611219499203,2207.5110835699306,-107.44682741247382,16836.29714206865,1922.4686777305535,1370.7712640955806,221.95339739697425,2146.162440848839,-97.02369587571607,17031.166219696617,1951.782275905029,1397.6170337945305,216.7703148232005,2154.8365074666303,-3.668867463376685,16906.446813930652,1927.3220287927625,1400.6747748413866,234.5169315960342,2093.254395289633,21.588432653978543,17076.215627865247,1932.1862539828,1393.2271435835587,227.07366808365353,1982.3085900215165,-110.21250130324196,17030.19631755076,1923.791790608564,1402.3521023123087,229.90376338013394,2086.3719649966993,-53.47709781760429,17075.02578363541,1923.3653808874453,1406.683256071526,222.9692903679815,2120.6067168913023,-248.33772497449843,16964.589577916402,1941.4771105832858,1405.287353892907,222.22275455733802
1908.0,-568.0,16880.0,1248.0,1330.0,338.0,2126.9933310908596,-736.9652078834233,16789.27143574183,1257.3794405815809,1313.6945820274718,336.9274376418432,1903.894286845041,-518.279903856305,16696.410038908325,1244.8169647932218,1323.7231991398621,335.40068337830536,1920.4275862553986,-479.50501574032523,16880.71521685416,1258.2292009860812,1338.2810742735544,351.1210161006556,1813.938551484277,-428.6684974657445,17030.587101155936,1256.7255196424276,1337.6655889208646,337.08700950003066,1955.789303834649,-533.4893770218133,16883.72665571228,1274.162117701526,1332.5296805050111,347.8676662519306,2030.6242671126522,-631.9403311944459,16796.553381934344,1252.957296829676,1326.199225058146,350.7001099981773,1955.9067315313032,-753.5063839166511,17058.254571138747,1249.4062441733354,1334.546364874055,338.63368947849847,1950.17725290396,-586.6641107914608,16873.10978256574,1245.932540822594,1337.8346111121634,331.71029659282345,1995.9589714034591,-506.68881563098677,17089.98725318138,1254.1367008981756,1327.3690162443402,338.84225737775625,1899.0242727583136,-499.9654973786771,16964.208436581386,1253.7760642683759,1326.1685650633685,325.48388028152914,1983.1354642161068,-659.9385969651208,16854.65041347732,1250.0751626675537,1324.2667907300595,345.0447435153412
2000.0,-632.0,16852.0,1738.0,1352.0,298.0,1905.7274428295948,-598.2432725444219,16837.322243322535,1753.1545909601853,1351.8431719390037,316.7233131053184,1909.8694310035396,-706.7208811861484,16784.55942698082,1740.9728802324287,1357.8466188342218,293.17809511044925,2139.8888560189316,-631.0310785688874,17131.036868807943,1750.6890604881137,1374.5950088419945,283.8182884657971,2052.506518324374,-735.8354429085695,17008.41019776345,1724.0151323093687,1349.1094700827578,300.39877338527714,2033.8969741499272,-787.4360593793135,16649.972727779525,1734.348844911756,1355.436669676976,297.85543470229214,2207.50869056844,-714.6953938619808,17038.388032350886,1722.4934999388784,1350.268761496956,306.24806487972705,1884.9476375615072,-659.3209529665199,16816.24365562888,1730.2756952462328,1361.0756790357937,289.01346331450776,2055.0158808156875,-584.3273297938144,16846.994018168152,1723.3279563045553,1368.8435757836771,295.95548890025714,1958.4991867717874,-611.1317688962961,16961.612250909,1731.022507705444,1345.5411435041428,292.48762840690034,2214.8225145885394,-631.8289197587211,17029.10421080864,1742.924990018422,1338.625653565152,287.86852872025383,2031.4993718437493,-548.4805423353936,16839.070864634374,1733.6212157182722,1348.5006389730386,290.30992501390784
1872.0,-648.0,16832.0,2168.0,1209.0,285.0,1992.1855581708305,-753.0468270555169,16793.768263839174,2167.4601848472425,1206.3147880690192,258.80539305642196,2003.8909313352935,-708.6689053608441,16777.61041448516,2183.323078381266,1209.577716532362,307.5913048416669,1834.0992483163805,-637.9113170287488,16788.453262835767,2182.943028436238,1185.9845499271257,290.8701809771307,1812.2899975090088,-654.5064861638343,16981.421867978184,2181.1707032774248,1206.272747833312,281.5704192452762,1894.0152086442738,-807.8501208861722,16691.48460247481,2161.6135858548237,1207.8508101410014,277.0909450980583,1820.3271939657577,-313.68800047122807,17008.176445066845,2169.0856056299413,1213.5297453998471,285.44028897139646,2008.0567323519522,-734.7432850406082,16750.27899980477,2190.5305842788966,1216.6559016119948,273.1817380878841,1793.4771968802786,-667.035518247366,16691.941133074415,2178.6274089023923,1191.8163710123515,291.1420123248624,1746.7795567133744,-629.4593864649219,16884.303421838995,2170.1065560395505,1208.9012834150406,296.9792064849354,1982.8965044147503,-723.7046353599003,16744.876859714976,2170.7060988951107,1213.0943097309682,292.3108057505968,1939.0006053498803,-699.8510285839247,16732.8440883337,2167.9009363674786,1209.2255893449044,292.5126739656368
1916.0,-440.0,16892.0,2199.0,1260.0,255.0,2060.5824675584763,-373.22191414968006,16951.216097986897,2207.9173415178648,1272.4678472404005,262.5673515935093,2027.4487736682152,-520.4499318357011,16816.54782403277,2210.0867305014426,1255.7514670332325,260.1147292549385,1948.1806058974064,-573.3986516558056,16741.08231188488,2210.7115020044753,1273.0840493372655,248.71808282948987,1884.0608337566453,-495.2036406046659,16760.11226222053,2199.403367137374,1263.0960264264536,257.0920655697555,1891.8000219896849,-493.97604871923295,17023.04955557972,2212.3085242194097,1248.9344822133517,272.76756904283144,1923.1184293564656,-477.524988192082,16868.883416400233,2201.980053092823,1253.8604340294485,275.6710773974273,2022.7728551393734,-544.9054593140997,16848.94169124439,2197.303537124601,1229.1048161903748,245.95370051852436,1826.5521194041062,-491.33014178952374,16862.393188136717,2214.938598140439,1247.262753573263,236.73406710079476,1854.6170490503562,-351.3386635186282,17149.16163939361,2193.776405395557,1272.0073037295076,261.311761876271,1852.6918813541317,-362.4594615101133,17012.392355617536,2201.086589545228,1253.8924180794484,249.5609480844997,1981.289987628739,-388.98619744338447,16822.40429555133,2197.74624407355,1256.3974942429852,271.68223558485005
1984.0,-432.0,16888.0,1955.0,1296.0,273.0,1970.720522662179,-303.3148400443455,16908.21920575713,1968.0676074727041,1308.0142865153196,268.8781241570339,1832.0643825980915,-437.5805922229538,16988.234702320788,1944.7756655249946,1290.812590892894,261.84985517025143,2083.61477651399,-450.85937310096494,16845.921387382827,1960.9847484164561,1292.9424527046383,273.5569330678413,1880.2669312841624,-228.84594150963238,16861.39017028471,1965.7550843721838,1308.612877617957,270.98648665993534,1999.7633408503546,-356.371226137142,16893.3755628014,1948.2216145748114,1294.2500818035232,268.14404160797005,2171.4283683382164,-257.9322764105774,16970.63058215207,1967.0513627864912,1276.3443494327591,262.80107099271777,2026.0018059577778,-465.2294103685043,16812.595188172138,1950.0506944369224,1300.3748632294469,271.6826378860831,2117.6765090872964,-516.0820310243373,16904.261134187218,1945.3384576144729,1287.1996870443468,279.42354040415626,1944.2982726224868,-264.08112661478515,16871.649987434466,1954.6910001168244,1302.076716707644,272.3109106927999,2034.294795912035,-253.1463174241354,16950.633208412954,1947.18688466383,1294.380524935528,288.7248950511508,1958.384022292158,-400.64961181243876,17003.66058942453,1940.9103611428407,1305.0521118082934,268.57943810515854
1956.0,-520.0,16748.0,1584.0,1323.0,289.0,1822.4345935390604,-366.88842864632636,16806.44611869469,1565.5907610294262,1344.143640039149,287.3360915130488,1785.2004462481373,-560.8994188073683,16710.99923647287,1592.6579832239017,1316.841216119594,293.1933189218104,1893.3431545466678,-606.1207253293551,16914.849025704836,1582.5416366559189,1337.6533145341607,269.06443291815543,2165.393693763408,-441.1185372425409,16736.21322665886,1582.0192235448892,1342.8010059797466,287.28659672127856,1877.5602550600292,-743.0115851860206,16914.881160388068,1588.5996883332452,1324.5106123081503,292.8564276791322,1949.6842680079294,-486.9275564877793,16826.66867796312,1576.6769602281959,1325.3393811920882,272.63392147093725,2036.0846121020459,-369.90476822094075,16731.836221035792,1576.6633311263538,1311.414133443775,294.0106304464049,1860.3295878806778,-637.4570719818072,16550.42065275379,1571.5055785476106,1313.0191277527247,273.72608355925723,2061.4413856424917,-498.9312368488611,16687.46815838424,1590.8499183271053,1329.4267660409116,298.9729988665343,1877.4880665325597,-405.15019129444164,16723.060525980443,1582.7282500136644,1307.7120717769667,286.9588706508979,2003.4010169238727,-359.41674653057123,16663.323933465046,1574.2042917537035,1307.4189567249712,293.48781929461956
1976.0,-600.0,16864.0,1584.0,1328.0,315.0,1993.8242123972825,-669.0766931457487,16801.490242880856,1588.8269048362224,1320.2234714475271,310.1066174772082,1960.7743379398041,-588.4668768843471,17009.36762477463,1575.692005313168,1321.4212394154706,312.18197063613,1859.7310144087035,-757.9109719333918,16742.881892226815,1582.8895132297778,1334.8477821629983,320.5679563360747,1954.2215907447544,-630.7830653543253,16667.21246220556,1605.3996304689194,1341.714891216338,317.6032406899189,2080.604138888947,-461.95578540154173,16817.37764170992,1593.2543517861689,1340.3429138150782,305.24989936039225,2039.3300593516883,-615.4050637256878,16770.301925338503,1585.4323737180143,1316.644451909796,312.03101078529113,1953.2049226172055,-533.27893377773,17153.303904674427,1576.2448637751265,1327.9951124273036,325.1662748290844,2090.8679562580623,-740.6013972068545,16944.48093476898,1583.084478307872,1320.7416679047824,304.9889637525262,1907.1463112649678,-565.2048681993934,16886.387774062416,1593.6609438033931,1330.7172375216496,325.1577166138365,2017.5416020048306,-614.5709409600848,16797.292725316263,1576.5236499802006,1322.7717115239468,328.4698748960507,1748.5158119691623,-587.546987122026,16936.88338851301,1574.9290902581924,1323.5119561898284,308.2667701169609
1896.0,-484.0,16804.0,1756.0,1317.0,283.0,1851.5207882081397,-479.7632797746541,16909.281168252455,1748.4692096607314,1325.3016544705972,291.0621211062224,2098.966772289863,-486.44480921481124,16637.143105542647,1756.0690235512027,1312.5550082505054,281.11081536975803,1939.6656076863117,-400.0331584052385,16818.518834625644,1748.6557280739676,1301.0759494275196,295.64336663249577,1848.9470845096184,-505.89438803041037,16611.914680706686,1754.5220564489455,1325.7115060637097,276.9993280278485,1853.4009666756829,-442.96492424481033,16958.23843423478,1758.9086789346645,1332.5899276276675,304.5836177921707,1883.6501306454868,-541.409859115318,16675.802367724576,1755.6872143486694,1312.1650709276187,289.66274360028643,1829.4072419608249,-396.7841163214158,16920.56419988911,1760.605955579593,1324.7383275206817,271.58783093826554,1815.1396702883253,-459.55225780419244,16726.169913890055,1771.526450926012,1304.2048058252326,286.0780298788247,1984.7015428244347,-546.1654386486126,16781.695072464176,1759.333061260315,1292.937383809466,280.8400710345556,1814.6849654863065,-607.071554681871,16865.71733538522,1743.1205516817238,1337.6622149122813,276.69953973865336,1891.9133944843052,-462.1976856510108,16727.509019370846,1757.8420562456024,1308.6528092821152,288.1393929860537
2000.0,-480.0,16852.0,1696.0,1345.0,317.0,1973.1113773800932,-542.9453648200649,17059.64555506439,1695.4283085047125,1336.5520452614967,312.97348354449537,2133.2384063459826,-407.06937319492465,16810.379100556653,1693.5320590836432,1345.3028342724729,315.7039792754272,1904.9906234593388,-428.5564525414484,16877.62336338003,1707.1263650414312,1335.7314884329396,311.20963535334914,1875.8068707449197,-433.7021987466285,16924.04100972135,1698.177561974526,1342.4965389332765,318.4682677437722,1964.850786968605,-439.4487717344111,16903.046580485134,1688.599618383952,1353.2852890963784,309.2335941547656,1875.4643414706018,-435.88674068205563,16776.020042154683,1708.4437518114028,1342.0889247183354,336.17140676542084,1675.7570482388392,-429.0721536889343,17058.659458438007,1689.412179547715,1344.6168527704083,315.4573270588906,1989.2080438939665,-420.75852195238326,16957.75426224834,1687.1679209198442,1356.1113508386843,313.64192186052856,2010.8954651817853,-504.70191658147235,17055.45519782994,1687.520809281488,1362.421024451849,311.29843575131883,2044.7055977703283,-640.2615978674302,16947.49348446511,1690.854024253575,1355.5634316996543,323.1915201074,2009.1615743092066,-586.1928311121168,16742.17745385216,1683.5039890124817,1345.5244610047077,316.56580092107964
1932.0,-452.0,16852.0,1485.0,1343.0,320.0,2019.4573914756854,-513.9511854040894,16912.991044748138,1486.7529634390091,1339.3468940017306,319.322546003601,1928.2680483870745,-457.91611551247604,16821.2391837456,1483.0387403281456,1364.5743258571838,317.7758428352156,2041.5755586524767,-530.0000152500809,16837.847273802294,1485.7816680218402,1325.2574184427906,313.8976567711683,2009.7968829748147,-529.0240368028514,17013.77388510262,1490.4319239346746,1339.9355848435844,317.5444811168861,1984.5609454552812,-449.68804467820854,16940.224327194646,1485.4474979563586,1364.7068314391033,332.62520524732713,2066.364854942022,-471.10169070704814,16741.74418476721,1474.5217414074482,1335.148312347068,321.02756840396427,2065.911135155311,-474.728434954032,16815.80804355183,1485.7521150712664,1342.301105951249,313.7830097345283,1922.284807749688,-194.87435973326188,16815.139592829542,1478.8049694764143,1332.7041383448488,320.9467626299328,1952.7921505513189,-368.08602610931985,16956.31887442672,1483.0031470614758,1344.0138857103047,308.52427538545015,1971.887004657526,-419.4286912847015,16636.881309887292,1493.1087869810526,1345.042222832078,332.3081469080679,1948.3661337896378,-562.3569085688816,16884.906303306234,1489.2443996089462,1333.9883330749885,315.80300555670607
1944.0,-692.0,16836.0,1706.0,1371.0,319.0,1924.0795397240188,-716.8385051927584,16804.871693796158,1708.296250491071,1365.7940994393107,319.9073260645776,1988.9062511920822,-907.4158746103764,16695.90382978575,1714.086574374175,1388.677177248706,301.2921352408284,1911.9826805499943,-679.3204281773554,16671.891903286523,1709.8279867770596,1370.4306990577456,318.64798080654987,1768.202449470796,-742.2882286278981,16986.06361303601,1708.9165257475474,1358.322644060575,311.35258954481367,1987.997287170845,-603.6851421671313,16786.418753455815,1716.328882244334,1368.9724205917257,328.6695838830604,2005.4351664157814,-667.5546357274004,16887.59345939545,1688.2812616283338,1378.2968085295915,317.0964166248874,2010.189894407194,-715.0834344260492,16799.649035566235,1697.3454634012696,1367.5671711922548,313.89943017268024,1724.576458656974,-666.7614783823658,16892.085178410216,1723.6038548879612,1383.008939728832,293.8846114890139,2013.6784285329445,-735.0588359730368,16879.71645558184,1697.148458457397,1378.6382934117964,297.98264967539643,2078.4192750715065,-860.1965003998987,16845.393316204463,1699.6893157237832,1377.184438046927,321.48487764359834,1981.3479276156136,-773.0552315881897,16921.416693951775,1701.9438287765079,1370.0402932222614,320.7846611409364
1956.0,-548.0,16868.0,2162.0,1336.0,245.0,2090.234245887524,-603.8819929626128,16728.731571503075,2169.1272996595176,1339.2638006606694,240.09296985704194,1882.549695081806,-661.0944879300995,16900.507644071484,2162.1605001268326,1342.2257540660528,258.8251153988054,1870.1331132750918,-386.1322944541232,16943.87244169315,2150.930657127489,1344.0296985172886,249.54931113913955,1839.1129928960365,-524.8864061281746,16768.3624430799,2171.5297031015907,1354.0985641290483,245.64917761129178,1919.561339521305,-565.4590990092229,17066.848649725962,2171.7903472959365,1333.280653036336,246.6339705930513,1715.982964475736,-527.4767213086282,16865.181350703715,2168.1316245267913,1326.9744090807726,237.79525491997026,2094.812727477617,-457.89939664012394,16890.147939306156,2152.4345346597347,1332.0399293671987,231.60968030165705,2168.603007070786,-337.23641675140937,16665.274557041972,2165.1477714536973,1341.573440937759,239.25534723667624,1944.5346901731152,-470.21753939132145,16868.931751256827,2154.764115813867,1343.5472830759263,250.61241212138154,1972.0335825669101,-522.1274142465861,16715.429498525296,2173.0399516299426,1313.2488900322198,242.77110878950072,1913.3270594519195,-528.3131784608843,16930.87760176945,2159.378940883194,1333.4618945532497,221.99567210181635
1908.0,-568.0,16844.0,2094.0,1332.0,269.0,1850.7819836347155,-505.6435781179317,16868.679386867418,2083.780374604435,1343.9004576004704,277.40847097394794,1949.4716215123235,-655.5769628094458,16698.745838021965,2099.9664296494566,1322.1073926110141,264.35836220112685,2066.2443456330793,-539.5901659073131,16721.502193368553,2113.8060909095984,1341.027073456032,267.3832151027788,1893.4731080615036,-567.4315391270053,16856.452972575753,2089.7191803893397,1340.849480722941,266.1169609253137,1885.2869567529822,-459.99896134964337,16793.217102550152,2084.893216470593,1336.4650431445084,276.84609054780196,1994.3852361585505,-665.367352642894,16925.35175286283,2101.057733988469,1333.7101556910827,268.22210640539726,1752.1616234481507,-555.0477005143565,16825.36776038013,2076.591519521412,1336.8620415894416,270.20991860840724,1971.240487723046,-638.5146927942499,16701.470140576213,2081.515976307428,1324.5830973219709,269.22635711991745,1806.7440031462456,-719.6505897286557,16974.804898920855,2097.2016310520285,1324.7195907583073,263.3926513247332,1886.3542026256173,-582.8158177560697,16826.87092307,2121.3505633337195,1332.449359839318,285.49957621007997,1861.6334205572991,-517.786858035842,16814.491579448117,2085.738508144184,1332.331891140067,247.13828276523617
1888.0,-504.0,16804.0,2169.0,1330.0,266.0,1898.7019814819798,-627.0197183236916,16757.6761837675,2146.8981023022056,1326.6309696877504,268.2395551687452,1762.5699780009345,-591.3733569187265,16737.048011482337,2163.8823619016885,1315.5585555062148,258.8142052042036,1878.1716213296427,-473.92317553056375,16750.20605200224,2178.1112159261584,1328.807329694228,269.7711751315355,1810.316644207286,-500.40833763191057,16773.990471878347,2183.1895526423496,1367.0865276086556,258.9184113520292,1800.926077743689,-360.3965826027809,16794.75301390208,2166.6227939203823,1328.557987073736,266.45749395611017,1930.2783483175556,-451.96210275390615,16835.339806823227,2142.916307628816,1326.4503466372182,255.46742664725213,1955.9212505381465,-361.3432558992947,16640.472648608633,2184.7774443091557,1313.0101042479369,266.30987243320425,1710.8415028950387,-644.3978935124704,16957.71248208712,2179.462436249732,1332.2120465746543,256.73533380080744,1715.8792872251063,-652.6428449895515,16702.337083520288,2169.3341652188815,1325.1072664123305,265.97575175728394,1840.8470065111921,-416.04852848749067,16683.68517768525,2159.6497260969663,1326.626671778563,252.0521660795764,1885.2326306996176,-599.9463053219383,16623.69769827472,2169.951094486597,1326.2141467387962,252.02082742152328
1900.0,-452.0,16848.0,1879.0,1406.0,272.0,1919.6249133612434,-249.108041325014,16854.22139938569,1871.5393273864897,1426.1983105192335,259.26359825000145,1976.6025732750977,-401.84963706152473,16907.596693978805,1892.0193750347928,1393.3140803368312,266.71101655132685,2050.165542762782,-454.71345499315873,16791.89175375204,1879.6132663990304,1392.708876813209,265.72186211212437,1759.1904580266628,-462.3194392243554,16907.552967144697,1889.1068639470207,1405.5523538322548,267.00849752492314,1971.901234248367,-439.55857927254857,16893.136024957857,1877.25022086934,1406.7350331444975,280.0889675457082,2107.9581136377637,-516.0197846752392,17142.75435313125,1873.9179599903196,1411.1404706096712,288.3877627712531,1877.425694100463,-415.13548035697903,17005.72474704985,1880.5347552610895,1422.270294653533,272.89228092398525,2048.724493106246,-395.1172612624288,16855.018989575634,1897.59120010969,1402.0994200425584,268.81701492267473,1681.0600439957882,-458.47873455920524,16874.590520506303,1865.2699046016542,1412.85620616179,277.4954643306556,1937.7486969277313,-415.66954394193505,16805.026228832845,1868.6661993577004,1384.8537040308236,277.82929369735314,1838.5052071818345,-410.4059419338915,16753.312475601186,1902.2171469772584,1412.5880471086962,262.93550369255144
1904.0,-528.0,16836.0,1723.0,1400.0,315.0,1803.091996621126,-476.5795929817698,16886.054009188374,1724.2223765540627,1399.087969057698,314.60865762203645,1949.3586677630967,-728.886108089363,16916.183424879204,1721.8616796277117,1390.210453737086,313.77068063724016,1804.878461752735,-611.2745178826053,16856.94560601349,1714.7290201992605,1406.5710717316683,314.99530044575255,1875.0767260669168,-417.9750289541533,16755.379340400286,1710.4372459671222,1399.5024466983978,298.6390300327681,1704.888243041735,-520.288925371105,16777.60044790204,1735.8508071805627,1405.631225303932,314.3415672893053,1898.4583395421523,-439.6230391875254,16898.042565114607,1706.8200580598254,1413.0154676250177,321.2405945601911,2012.5695385240592,-661.6868529524377,16968.617616476477,1738.7115343849914,1403.7933224903704,321.38777592812613,1766.86573625312,-560.4435304531667,16810.471909652122,1715.8013309662679,1393.1964430368648,313.1528252648484,1786.3340780828503,-429.48876102588935,17005.159616767163,1713.4612648343618,1382.1829967893339,312.1240415245219,1827.9471471567265,-714.6221207590888,16871.5538225729,1722.592111987632,1412.0236910098174,344.16399004353184,1829.1888936259536,-571.8024970819287,17009.09035459215,1718.416728517296,1415.533526425592,304.2810188493878
1788.0,-400.0,17084.0,1551.0,1370.0,361.0,1642.8463725158047,-358.7497104294446,17278.720295276602,1545.6314895773774,1368.649849834905,369.2996573923595,1840.5295753674054,-492.96377017324556,17310.332675699043,1560.2322632441203,1386.9642648103306,370.6994334258448,1965.7143889550312,-493.90189517968287,16983.53918623606,1526.4160525323532,1375.6527235905858,368.8324410927214,1849.1313526136844,-346.36847791027316,16978.177531720146,1552.9561280502157,1376.0147208151034,366.7302911081987,1827.2815927651102,-597.3007019127317,17131.113090953986,1569.837084325075,1367.9455193044525,370.1787217317249,1850.6890024540517,-406.27161150095634,17170.02732167045,1547.4118363952434,1371.2753622815658,350.5469986724324,1720.4246936886111,-481.9188110940537,17319.5820942671,1546.6826021989968,1372.2247773729487,368.27257461496106,1695.5014064181198,-479.9546682080668,17044.235855295352,1549.443165796057,1370.868755086595,353.6762368396989,1788.0732793172203,-490.95667123941854,16934.315454730957,1554.1705854005577,1378.6348130128702,352.6851028854625,1945.8337601917356,-274.3161096686322,17187.488374201155,1550.7518241538685,1387.9635418882874,365.9151515614628,1789.9842820972121,-340.9387665021278,17081.284704665337,1552.0004987859154,1340.8493453890117,358.64622995864505
2048.0,-456.0,16760.0,1506.0,1435.0,425.0,2089.9072179232744,-391.54490906826936,16598.480639632697,1499.820455219578,1436.2465244078426,423.1170977223141,2068.706817660564,-551.5902747889934,16725.277574987056,1521.5457093094308,1424.3024086190012,427.5508983363045,1898.3000309709423,-523.8277330632991,16687.205296461176,1500.0277515686794,1447.0501680602902,431.0775225751527,2013.5314017268047,-537.8863913534105,16896.939964366622,1485.9153010484783,1447.2366833262713,428.0601940634433,2072.1360705366233,-347.7988559433853,16927.255576435196,1503.3093023111544,1414.1992190462472,432.8581489883921,2016.0694684638945,-390.1654472109466,16606.239942106906,1503.3957580153638,1426.9242479538423,436.39353201193325,2080.7052395914934,-459.58467798923004,16638.856237335334,1510.0701894119447,1432.0503630350947,414.2264976975649,1990.250011248257,-475.14494615712744,16713.435150915622,1505.1667797428538,1432.6610681794164,402.1320640271539,2100.312433648747,-525.5440055533737,16772.475408064096,1513.536705173925,1423.329701116041,423.3816091325684,1985.7193875392004,-412.9788545311989,16870.41678236714,1517.2861270411643,1419.7072791553744,427.55125158826445,2102.702598078631,-488.13522573154296,16755.197369277135,1500.4555190812293,1429.1924883494785,440.16253078071145
1844.0,-692.0,16988.0,1742.0,1370.0,1416.0,1898.8033295734585,-745.245094016113,16954.64774212178,1741.980927209589,1367.8857837282537,1413.0081787982315,2028.7029241262521,-614.9460810271742,17107.075779813345,1742.4796267137535,1384.681677900538,1429.7193450959994,1815.2990005916208,-475.4033718100561,16895.9481722472,1739.7195730061821,1374.6197794692762,1424.8794332459565,2022.570174741396,-735.1437566412848,17074.360440685297,1735.3942202354106,1377.5867128312736,1434.6892900347743,1849.914051626928,-814.3740543760846,17043.853678157117,1746.1523070342034,1369.3236551464959,1411.4562913923592,1663.7553492753655,-748.7224398205736,17057.790478824096,1735.9148753615448,1385.5213728268773,1427.5674632951004,1857.4906916242016,-706.5998780100354,16914.20295754286,1735.366354147057,1380.346325849135,1425.503660700291,1857.61979404569,-743.7592612456283,16860.303667005363,1751.1592610290868,1378.6071684660426,1411.5250910440543,1931.5493946706167,-587.7127971158526,16886.48546817257,1749.1136282428736,1369.3467148848326,1423.1151858782864,1903.132508403029,-837.9395383891716,16960.680369523663,1733.7146168606837,1370.9831227195955,1415.8931618390395,1986.4724864338473,-644.2019796240168,16992.195693347297,1751.7083762291618,1364.7061859911203,1408.3990932185347
1864.0,-372.0,16892.0,2818.0,1297.0,147.0,1881.6899398971793,-204.63041747198238,16817.424919136894,2811.112943520665,1321.748837399411,146.82641835086474,1971.2260831347426,-220.4603818186359,17182.868808510346,2829.1609084617526,1315.4657504090421,162.5067538340012,1906.5644385517462,-368.90420524012956,16917.755130113732,2826.962247672858,1303.4829609731537,150.1620680770812,1987.2828116401688,-381.02766721056963,17003.267802437615,2827.3786346299194,1291.0365282511136,151.83251910356998,1844.2113558012015,-412.7026217080763,16895.747902486983,2828.819195075679,1317.3551367024097,144.01814927241992,1684.03285812903,-237.22685741539098,16871.310847611243,2824.9073361607575,1290.3181920347386,149.88311600582472,1775.701966668486,-345.5315323877802,17001.107127577994,2819.9108938587633,1289.4556193388005,138.25932504635287,2016.8241359670803,-485.5291239183699,16760.267646498934,2819.4949995060642,1288.2890814067052,149.60778128178302,1861.9672303008329,-462.83696855867584,16906.162839408844,2814.3271427472237,1303.4518584312707,136.1414411544493,1942.7013107961234,-358.3122176991617,16918.120530574226,2832.8902529678435,1279.7436352634975,150.82023850952245,1853.3018554926225,-447.7982230007106,16878.11783899278,2818.5436020853326,1295.044103329236,148.606617632557
2012.0,-20.0,16936.0,2190.0,1305.0,315.0,1832.8998069251452,67.48254721464764,17010.394040924388,2176.173195345721,1312.1553964563102,324.0816189548452,1918.9728189870777,19.985625640601576,16905.877458801646,2182.5388182745537,1296.8535427521208,308.42415567559607,1948.602757947126,117.09594573474723,16947.50925302381,2185.356735423347,1307.7960559482826,319.5602802705091,2061.432712569654,-27.932862641515815,16829.571592287844,2186.341412956187,1306.2085825690679,311.01995813680026,1881.1898278868669,-21.91617078495023,16956.03202783738,2191.7896816244693,1329.478624325674,303.8570102960898,2068.6106028805543,34.94771949519953,17010.26800979074,2173.730459949216,1303.813909946749,316.8142807446623,1896.2191909529806,-188.83275534454233,16680.755676606404,2192.856298198908,1311.524489614907,321.46204324738517,1861.799300730784,12.68492705733376,16870.343210409344,2198.692434673902,1293.0802548010213,312.33776200119536,1989.2445967164813,18.306486359318434,16937.194100978762,2168.0891868415015,1304.414989685886,302.5794883207045,2088.8351441068166,60.062057439733124,16901.34636096137,2207.383435204694,1312.3591741460632,303.4831608973219,1886.2452579908613,-7.326677893433432,17048.77648343895,2180.901156581267,1302.3086773081536,324.2103882782901
2020.0,-364.0,16860.0,1480.0,1347.0,1604.0,2122.8252195323503,-238.8351965009827,16932.151785277052,1482.9931319128543,1341.2366028765641,1616.4941625883946,2049.123991420753,-377.22507053936664,16833.56304585618,1464.7291326138695,1357.1575440892168,1631.8322272181492,2099.164250021851,-406.36191868829866,16949.41271191721,1498.5229718338262,1349.129104794614,1605.5352983186801,1888.335630722675,-581.4383332342663,17003.054317437276,1463.1112772311415,1348.4526225816098,1598.3127480316036,1835.0711563349128,-406.88854654999983,16802.453146419823,1486.675096969085,1353.6713202445983,1589.8574655006662,2134.013978635931,-354.8748198588905,16959.057177346884,1492.6319452296782,1357.0489100465873,1612.8098046101957,2183.5165096145956,-500.14633712528337,16825.15820525833,1473.7029581498143,1352.6531756830518,1619.3480352625604,1760.0073605668667,-201.55854283132342,16948.777805900616,1481.0383912685736,1351.4813648250765,1618.9812275029683,2012.4568473896993,-318.8731306935557,16648.456183081642,1483.3393848993994,1367.0074029452223,1602.302127566542,1937.2875648353074,-346.48167027171854,16563.347219919033,1471.2021824998167,1337.1864704044087,1608.381241198044,2098.286051366051,-412.9257717412408,16834.845328422278,1493.1054316463901,1336.9794719501597,1590.242130233052
1772.0,-1008.0,16728.0,2743.0,1174.0,2136.0,1694.6210274781163,-908.7160204476193,16945.860385179094,2741.2869767624147,1187.0863827322528,2139.3094286366104,1915.6387457465516,-834.3137814507272,16659.09148370551,2732.8657775625516,1167.1847483588551,2116.5650515036564,1615.6677093673568,-828.9481989821547,16749.517180493174,2723.9872889503217,1187.3705406709146,2138.244097369518,1664.0863239012074,-837.8889982894163,16919.366746237112,2753.991832516162,1171.4051745037755,2133.5473433408742,1638.286612714413,-1194.4273056020613,16919.491631738452,2741.944524834605,1176.6048169442581,2119.874292063196,1848.4655337036934,-1077.0681941671353,16709.860534501342,2755.58488370905,1172.5463635857348,2121.229607639596,1729.2642203123105,-1073.1288305187315,16755.098391381172,2756.492840394956,1198.0983033758464,2162.543091381807,1687.4335354571745,-1074.791154391225,16698.831742562634,2742.013967948909,1168.9170525087272,2144.240192834461,1838.2517579397302,-814.158877186619,16675.021833707055,2732.6803959224603,1171.3948043401817,2120.1362576495203,1765.6725140349065,-1031.0348740275551,16586.807341744192,2729.2670857670073,1177.0810647274031,2157.4571014767894,1809.3956853619009,-916.2975231392825,16571.451117656758,2752.8392543086634,1169.3900793651667,2119.3367714500914
1968.0,40.0,16788.0,1837.0,1371.0,1132.0,1834.3543299250032,178.6340697219751,16742.044901653502,1831.3125378654397,1367.330653931764,1134.8188338484206,1942.7234180532062,-48.48151209163187,16989.05174225804,1844.1004433298285,1384.1218692952284,1142.3743399480406,1945.9478875829543,42.14018359287286,16765.703811211548,1847.234980236593,1383.0516945225277,1125.6019092296096,1886.3393283490716,198.3806704593052,16883.98372705233,1846.7704166607855,1381.1178907487802,1139.2891627848112,2085.277565183036,-79.58945816933458,16722.351559377097,1847.7010504652487,1383.762001354088,1148.3400341462154,1853.8898836953585,75.31344052440575,16819.7703901885,1827.6585511519165,1367.8586581388479,1118.0343822207342,1920.4146061619463,91.84999877480149,16848.734376615477,1825.234600711891,1375.3206865027105,1125.3755285243383,1898.1114493201426,-2.0273658260078165,16609.08006356825,1844.3190939967067,1378.2698130465005,1145.5749476477151,2107.5834287353764,206.31525926265914,16731.659633137166,1846.0858709239837,1367.3083000360168,1127.1140210341343,1924.6740691708717,105.43138354394253,16715.34206137018,1857.073505719565,1365.9224797047818,1125.3937213389934,1899.1076910148704,171.24333527063328,16969.293917101702,1828.220032404979,1354.6588017210493,1127.9153284477618
1932.0,-524.0,16748.0,1724.0,1319.0,273.0,1911.7594343095643,-513.8118524633192,16854.278264429136,1724.4260953589192,1294.5125987291685,283.0914829371199,2046.504435040526,-558.2096034335082,16842.99453065037,1748.9097922326941,1332.1369775825078,268.28795004131314,2044.2072225034192,-544.0898510194356,16770.903789877404,1723.6700046977487,1325.0491259474825,258.945724479195,2002.7121795487162,-525.6492931878283,16413.470616598,1708.1203970994895,1310.1864021840674,266.2371666314336,1936.733063024717,-327.8693399032197,16924.518217534653,1721.0492316372765,1337.487492117889,274.6563470815459,1844.473323699763,-733.486636721858,16747.855471799914,1701.6327533543003,1317.6186757796993,272.47166089431664,2020.156002704361,-372.2676327616566,16567.25296873072,1722.2595268796574,1324.355934434071,269.7017927062799,1858.528311442144,-375.2860538410273,16878.63104130315,1711.8620654778226,1332.5347285980783,279.56714699176837,1987.2278355572942,-411.9312572683586,16788.542414188887,1716.0581822469862,1304.0905795108206,270.79008793574275,1917.772753606604,-654.7993032010945,16656.58361358295,1730.1968623804567,1311.2737075393804,276.8914886704091,1934.3317147252556,-574.3183642447248,16744.714169541254,1725.6390295639337,1330.6755337290947,261.5111599371941
1960.0,-332.0,16752.0,1763.0,1331.0,331.0,1966.6983310221403,-536.220960737405,16750.97659571239,1734.3805997543823,1340.2731222387247,323.41411137989695,2051.578784564943,-191.1230943471359,16787.783183012074,1758.0462792771798,1336.6869664221301,325.5148384388046,1916.6010045890296,-358.34892175032394,16814.479782516493,1758.3764502087356,1343.4359341410666,336.5614464623349,1909.017368179162,-281.5179877205152,16711.81936545757,1750.463979526888,1319.1005967799808,336.8537823760055,2103.220993614945,-401.50898011868105,16544.809127886696,1784.079136844543,1338.5490675059377,339.0316282535627,1881.0782078945936,-325.439867778865,16615.380991286813,1763.874971543285,1321.4302996186448,330.5606241682048,1968.9025702702963,-467.8485066439116,16745.54606614407,1750.4292704131433,1321.0258804452385,319.40260856483485,2165.37640893769,-322.6731294778002,16705.029908221673,1771.8006408156925,1335.1574169213993,318.47391610035623,1878.988065502127,-456.5504283159485,16776.078067024104,1751.8879279347743,1353.4096049788025,330.03127981491053,1827.8394417685338,-311.9084238191275,16665.174089933316,1761.4961744845036,1318.365192934866,326.63837652852976,1807.4927318659375,-247.82832594520977,16737.246335858406,1774.6197332258337,1330.37664124445,353.4321041100124
2028.0,-492.0,16896.0,1733.0,1338.0,266.0,2122.3942480943765,-436.79182294835823,16935.768057517573,1734.8585153240092,1336.7517069629762,266.991255282078,1923.3104582080618,-574.4273599724801,16911.225361072513,1711.9106721053215,1361.2530698989087,278.1933068593133,1920.0247729270263,-355.5549910180627,16753.851261647684,1729.6035421800811,1324.360811542648,260.02064804889744,2113.1785317822773,-497.9645962456465,16861.600901759168,1742.587336434489,1340.044876458088,263.57677910387997,2052.387167535607,-378.19541848425143,16889.175705734415,1727.884590204968,1325.4700079018216,259.8632102486757,1992.0462957662758,-469.51507623337653,16889.039756328075,1721.4118566801683,1339.719941183795,257.9247361078159,1994.8884315591172,-694.9559624962142,16897.244088944874,1722.404672734735,1330.1138330472006,268.03580447114297,2024.204351998162,-519.1893468503753,16929.337981963545,1727.829427301571,1333.5450049008643,249.31985680279996,1914.3627952394625,-569.0098020191673,16709.964910667208,1739.0208649141655,1335.0704242764216,271.34584784267196,2036.5452923199957,-472.06281194388924,16713.019273777332,1731.4220244392607,1351.9514939949333,239.2379632822853,1947.730184224207,-413.25969826097577,16880.63729741861,1722.1578487645174,1343.2864896863937,271.78749890096907
1944.0,-464.0,16788.0,1728.0,1333.0,286.0,2021.5323960573853,-310.3845788507738,16705.653353208254,1715.0700641951203,1344.1771857134481,288.78799229317315,1878.1456510567734,-602.2111243704628,16735.813304676125,1707.3644464877405,1330.405083960074,272.8636051789301,1904.9501684647378,-544.2017995116123,16886.468225031967,1742.098472619506,1340.8379516295176,297.61857939861017,1874.9979591033848,-306.63505470113506,16715.169008942095,1717.3582896107757,1329.9233599141953,284.57176831908646,1940.273964377412,-506.1729454535595,16792.471797410344,1715.3054315098182,1315.3229002556889,305.9128878303431,1993.5484948109372,-493.6361707547618,16683.88501707662,1731.750086246579,1319.0218579098516,301.273590571144,2086.147605504318,-546.3997932982063,16898.630698966605,1737.7645119591602,1332.7322443277496,268.8221324754554,1830.3445649150742,-358.8165753384852,16801.80157841678,1708.6753210600907,1318.9050623937424,289.4130260175674,2156.561948493696,-321.44758608626626,16859.20083142364,1725.8435549468725,1317.350401139944,274.1334258948554,1839.062325681505,-498.65940539806326,16618.276615399816,1713.556494484085,1321.6263507063738,294.0895804005328,1928.749081270445,-393.08570889853877,16832.888819374097,1714.9640513444376,1328.3848964752192,283.0151887972938
1984.0,-444.0,16884.0,1787.0,1298.0,745.0,2120.945111955244,-379.03031691462957,16971.97843239255,1796.9247880012645,1301.8997758581452,734.2614620759988,1880.2709758763792,-466.95350709355625,16802.102217496038,1772.0203712034534,1310.833359058726,753.1912412105314,2083.256164498938,-584.4305638343799,16765.991695803034,1787.8978756854203,1278.6924233200557,731.8182809136496,1917.9677388944062,-650.8066006496804,16825.97315971057,1783.2256932011546,1293.8759491504513,746.7744257923847,1996.3691323925716,-381.1495518050947,16859.03702826047,1804.651714262529,1287.008777340401,740.1849976232377,2060.801818313578,-231.27616957330318,16904.370951802233,1803.5887823806843,1317.686904036586,738.5669084905896,2034.5263606896926,-575.8684754879863,16877.908161094187,1779.7540189124866,1300.661511505259,735.8957285475309,2038.0877115699332,-427.70434004151804,17121.89023938706,1800.8003104400711,1311.0678793951042,758.0129093557135,2014.0002481471379,-650.8924607534707,16931.82612407641,1774.8410230638324,1297.402211249931,758.540125649038,1805.0078847355298,-702.5794796394027,16898.097572644045,1774.334501637803,1300.0780228117244,740.2959873781439,2165.727179741708,-489.3377274688022,16876.72774775886,1786.2787323031848,1300.128807855121,766.0064121240656
1876.0,-320.0,16892.0,1724.0,1347.0,431.0,1918.2607050807676,-318.841074052725,16963.75610018633,1724.0508887549206,1343.9462987620177,431.1728075315301,1790.6540322099568,-178.12168673763796,16671.41008810583,1731.8810439482882,1346.4481528752533,420.84679428373306,1789.056483178635,-421.6043024050083,17007.775767164985,1713.7108853641178,1337.1743967437794,436.03062325395393,1905.434584379962,-236.69344506697962,16976.890416630187,1731.8374741020025,1340.1230544171904,416.4781974456468,1929.6401956235504,-446.1739609742039,16880.801470589533,1728.6965129321745,1336.3114751227724,425.57125143311197,1888.987633789672,-434.2635745698244,16960.61839746725,1711.599245925043,1334.318414442116,437.0812255657416,1860.5920161855609,-411.46581820564137,17126.585728623337,1720.2863951523195,1347.5539083002488,434.69185307971355,1833.7389612288314,-114.10736818930368,16936.493749848236,1726.797689653993,1365.6055493905783,431.8673683145379,1953.5215288951752,-332.2243593551179,16786.870911996994,1728.9592753630384,1348.2799966717512,425.04085358906747,1938.4843248938328,-214.29045848936522,16753.181742119643,1721.9215872900888,1352.9041968399245,425.018077371007,1820.6261251595843,-294.6512224229815,16896.31967502244,1732.8467964467218,1319.9179000044253,434.905020680762
1644.0,-540.0,16760.0,1786.0,1241.0,275.0,1750.7775784606833,-530.4908850110362,16858.240864453644,1780.6167111648417,1252.3014085944244,277.71081730284425,1655.3961752184855,-726.1121523267541,16723.971763146677,1772.0602907149396,1232.8552436129878,271.48982860566525,1664.3098567538989,-428.28350602018236,16870.424211714297,1784.983730082356,1264.1886747808292,273.34530697133613,1772.8953554618906,-332.3720356189574,16537.26733304234,1798.724178637757,1242.4249439785249,273.5994797851027,1672.8801735620007,-430.2497877981839,16822.865014444087,1787.461698217556,1248.7980505902108,269.16124527854714,1580.9546039793981,-692.145837581203,16679.78233929954,1780.0189014840914,1248.2515789975666,267.73966259517607,1430.207262519753,-426.16266151882155,16776.578130474074,1790.1542824887397,1248.763593607296,270.858402355986,1494.2881073623134,-548.8134613426437,16667.664037729297,1794.9532694533382,1222.4670216519214,274.18175370096236,1703.176861602114,-374.1464299502642,16845.001495294975,1779.6206316152836,1249.7911371794285,281.52819945939154,1729.6354532666867,-630.5380643569933,16800.91889502669,1792.999401673292,1242.575639431543,265.5299401809399,1602.3890977379485,-460.5622412457281,16821.250581650966,1800.7696213770041,1232.1888255238994,269.7030243579343
1728.0,-500.0,16924.0,1687.0,1294.0,-172.0,1565.7474539528314,-578.5440599604744,16967.284540485925,1674.313349227292,1282.957037926222,-178.08549578536508,1603.1690844915634,-500.9923168921271,16861.734277674324,1686.8770714565364,1301.6842405732789,-163.7697459135419,1679.4965696669,-490.7938045462498,16866.322707770425,1687.9824886750005,1298.2179536982078,-165.83916734186337,1844.041244435133,-627.6217072664035,16873.414018349067,1687.6369691688442,1297.4373567374025,-177.33537901256483,1674.7758668822178,-690.3316918329552,16982.292869112483,1710.5176369355324,1297.4541068261335,-178.28205845992923,1622.753874383899,-382.3439138921052,16811.993800256732,1673.8098246631841,1291.5005885701478,-204.81741443612748,1606.5114374596096,-458.30832303244443,17031.790409933026,1689.1712934956724,1301.157884645856,-180.79365104727412,1999.8340323507928,-511.5798585148731,16791.47207976288,1683.371684900548,1282.9382714993392,-159.51517725075232,1675.5960854752418,-464.3770742487481,16918.717664496264,1673.8893049920684,1311.1071219869548,-179.71952872756273,1831.3837641330156,-475.29033645121626,17044.37789416883,1684.7693903224242,1303.9441467676395,-167.95475760699483,1694.0687576613855,-439.8027993469751,17003.859593214504,1681.05197523764,1310.9749630543533,-170.07905280538668
2284.0,-88.0,16784.0,1507.0,1354.0,-54.0,2406.477807243724,-230.82194585521643,16688.322662885792,1512.8859928831912,1351.48721785555,-64.19286397355738,2288.8001338900663,74.23426157664801,16733.709516178988,1527.33198750846,1364.1638501990226,-73.38624695362238,2410.4724184647907,35.83247441605678,16873.812664004865,1489.2520473993218,1367.0979649842686,-46.14150065521176,2369.6983710852664,-43.6245221206911,17055.96825823227,1503.9378937350627,1367.6885438308543,-43.344049228782666,2235.7873467840623,91.59577182092818,16859.923070899313,1494.060488754337,1338.358187898156,-48.019496084877716,2387.3629132891924,-216.0921620513605,16884.291055711372,1508.6811066786652,1354.7893677360573,-54.499760316085116,2373.739194388679,-111.63284509132563,16772.321684809813,1512.1919072383907,1347.9159170572718,-69.89487457087112,2186.2027989654875,-46.434010837727655,16891.683244993146,1507.480171448581,1347.8223592007262,-48.195153024271875,2315.817763375339,94.05878406910239,16881.09442526944,1515.6225857990873,1361.1936071343164,-39.58429536395677,2342.965168865895,-53.62881212495195,16887.133076753882,1496.5623401164046,1368.5586347025128,-50.708064817004995,2281.928614235605,-50.022908018370984,16780.543383756372,1496.776298023078,1360.3190727670863,-50.477535653271765
1876.0,-528.0,16752.0,1765.0,1340.0,362.0,1886.1856010134811,-441.60429905360604,16762.707603681916,1759.3989544206008,1330.4266680524772,362.1232936771521,1844.0080812891724,-682.9150631985744,16739.031792253005,1760.887892680024,1340.1381571345532,362.9726394526886,1983.428320078106,-608.4426939116768,16617.208141906263,1765.8191295885044,1343.4795702765123,353.0072139768779,1877.4657915468758,-470.74899606236266,16706.48601005286,1757.7952340962659,1327.3246628405466,369.4878115595848,1901.9993108987258,-233.84607730784444,16661.228949476976,1771.2407060122698,1341.8859178736627,362.57577209534935,1780.4127991352625,-451.726496082185,17006.34490514408,1771.5216015371532,1336.7453195386033,363.1678123966683,1944.777041873389,-564.1895450418624,16751.53536950082,1751.9049539367988,1351.4828188973986,362.07633316542916,1968.1186060772504,-507.1441819562501,16712.45689262135,1763.864659246262,1331.9499010413824,355.0090193427019,1811.245970262745,-603.7751065149467,16744.26912886329,1758.273015407356,1342.2860724285997,347.719810146691,1888.0733942335505,-558.2392498640882,16729.51314909446,1762.5220876372355,1345.0597174473362,375.9927568952452,1739.2139287359823,-519.0454215918209,16685.585555728205,1765.6312685009332,1343.2991213839791,347.97696030396196
1936.0,-576.0,16748.0,1738.0,1377.0,278.0,1947.8645549835867,-595.5835633920315,16638.236041730997,1745.9115891877289,1389.1694694307862,288.47727555891726,2171.767978135321,-510.5033688847076,16803.015500860853,1744.4514505054278,1358.975717197752,270.5206808825159,1839.6093951097882,-489.6899421960739,16842.181275014103,1737.6662194232024,1385.5071900152498,279.213949559446,1880.3922217492443,-527.0261699855207,16654.91152817595,1744.0608904674605,1373.9966184226837,287.03673865209413,2105.0788319032345,-685.1355604748238,16790.40763311436,1746.927724722186,1392.9061218552256,261.06775875967276,1999.0227101168045,-566.9740305846126,16781.574662465686,1750.102090413189,1388.9525281385831,268.6920898929914,1896.4810299093565,-651.226793426358,16816.70243537338,1728.5707657585115,1379.4554867129568,266.6451373588663,1939.4156281460018,-415.2116685969396,16662.222776534712,1748.4448979428191,1364.5834030735575,275.13698551339814,1841.8077491835745,-411.28136567414924,16699.12740908664,1736.2748899941855,1385.6960918044053,288.1189455395049,2045.1453214261396,-615.7060922107722,16685.355206371896,1729.0434883773007,1381.606054475802,278.1623639372386,2015.127388759736,-571.1631987476561,16721.358349946615,1740.5056145544452,1379.7862702775462,290.0438424968086
2040.0,-400.0,16912.0,1700.0,1334.0,315.0,2009.3700943997237,-566.0779857272976,17035.59281387352,1696.0190290461298,1309.5444860879295,316.51458343807536,2066.500731517991,-383.7680877721051,17006.04246918635,1700.7487650487194,1320.086504113563,314.00986994192215,2009.9568959651483,-459.7988651083759,16811.889407082494,1702.08619026744,1351.0049430524703,323.27738096253444,2106.845575907816,-478.1107488307509,16907.37546279616,1707.2414640841869,1330.2832861469874,307.45151505312344,1862.8603070511876,-317.2255105957617,16842.673559307692,1688.5428239119756,1326.1061346977774,306.9932158859105,1982.9324622488227,-442.33459276231247,16871.57143090766,1710.4109404488731,1338.126426775159,309.6877569104391,1987.950133519252,-488.47121187031144,17143.216092987415,1705.248133893484,1327.7148196429382,315.7984471718941,2088.9117666913244,-377.24456477462456,16714.97994810343,1688.6411193645035,1333.1033446922188,312.3356005221059,2142.9136215331337,-497.4725508680705,16868.577915758593,1690.3990300403493,1326.1232156365627,308.2549141007835,2056.2661385588804,-282.14646157562174,16844.755971682876,1695.2089704527882,1343.1929897239158,314.6033251341406,1924.812407580988,-267.6806067194935,16940.260783818685,1692.786594867056,1338.9275511125038,302.04082337626437
