IMU1_AccX,IMU1_AccY,IMU1_AccZ,IMU1_GyroX,IMU1_GyroY,IMU1_GyroZ,IMU2_AccX,IMU2_AccY,IMU2_AccZ,IMU2_GyroX,IMU2_GyroY,IMU2_GyroZ,IMU3_AccX,IMU3_AccY,IMU3_AccZ,IMU3_GyroX,IMU3_GyroY,IMU3_GyroZ,IMU4_AccX,IMU4_AccY,IMU4_AccZ,IMU4_GyroX,IMU4_GyroY,IMU4_GyroZ,IMU5_AccX,IMU5_AccY,IMU5_AccZ,IMU5_GyroX,IMU5_GyroY,IMU5_GyroZ,IMU6_AccX,IMU6_AccY,IMU6_AccZ,IMU6_GyroX,IMU6_GyroY,IMU6_GyroZ,IMU7_AccX,IMU7_AccY,IMU7_AccZ,IMU7_GyroX,IMU7_GyroY,IMU7_GyroZ,IMU8_AccX,IMU8_AccY,IMU8_AccZ,IMU8_GyroX,IMU8_GyroY,IMU8_GyroZ,IMU9_AccX,IMU9_AccY,IMU9_AccZ,IMU9_GyroX,IMU9_GyroY,IMU9_GyroZ,IMU10_AccX,IMU10_AccY,IMU10_AccZ,IMU10_GyroX,IMU10_GyroY,IMU10_GyroZ,IMU11_AccX,IMU11_AccY,IMU11_AccZ,IMU11_GyroX,IMU11_GyroY,IMU11_GyroZ,IMU12_AccX,IMU12_AccY,IMU12_AccZ,IMU12_GyroX,IMU12_GyroY,IMU12_GyroZ
-1888.0,-5084.0,16248.0,1769.0,1312.0,309.0,-1882.9657714721886,-5045.942621844735,16299.810519451476,1756.636087492946,1311.4855469835509,318.044384600316,-2056.2881981830747,-4946.811991907247,16209.799837169843,1787.7612738649527,1304.9642948305936,304.1548238677872,-1733.5599750166598,-5191.1326368250275,16082.477671714978,1778.2545811048435,1310.762516618735,318.2329061951243,-1745.0087390289111,-5211.706116406428,16022.822892094166,1779.9585754696977,1311.947924181774,303.0399804134287,-1937.5755143870235,-5249.169993819606,16353.240186899266,1760.7280779929479,1308.7130711113716,312.5645777270938,-1818.1089264605612,-5161.603035223947,16235.49025978574,1749.4757040179798,1316.5381081018315,302.108165963052,-1867.2083262719993,-5018.99335762141,16100.434425811687,1790.4530616004588,1306.1488514832038,300.8444947489134,-2010.0161774681976,-5128.012878028782,16125.611677385134,1742.7366417752323,1328.56770510893,298.21236543865035,-1708.671981306624,-5109.017730698465,16164.401959609184,1772.3904793490112,1325.9449383135097,297.9480783295316,-1943.4727071865407,-5264.121767640734,16022.904323170922,1766.4053948709764,1317.5757865401945,309.65904493410835,-1921.9600013856364,-5226.621636714564,16222.24017948701,1768.8055511190798,1306.4882801067297,308.850494998813
-1860.0,-5020.0,16232.0,1719.0,1311.0,269.0,-1982.142480442946,-5004.092708995542,16276.471707567825,1717.9026683609015,1304.097482137314,293.885486438343,-1889.2233743183585,-5012.4682077627085,16153.864317378882,1738.448860586743,1310.5330129927327,261.152437309043,-1894.13393426197,-4915.853425421461,16276.638052804927,1722.3829158589429,1330.362239306905,290.2998691768641,-1947.260910136236,-4945.641126949504,16193.053784311669,1712.0820230497152,1320.7651229053686,266.628738142348,-1706.645864650249,-5149.677923453968,16316.79928760284,1719.2202008596767,1322.8871774044767,270.32610749868087,-1768.65389143486,-5047.668706423666,16106.20427254721,1715.6270810489334,1312.0082100910247,276.58665335112494,-1820.01495565299,-5016.858312491715,16260.42444784281,1704.5336449429071,1326.965169008329,268.6642499443133,-1823.7829418053057,-5020.450716505438,16314.2132593298,1722.4430778962687,1325.157256089664,289.609467350916,-1786.4345740221672,-5170.517853804794,16169.761032041404,1732.6412514050305,1308.5540183553724,278.6184650141449,-1815.9945833259105,-4827.019446965116,16284.7651637698,1715.4769265398909,1314.398139138366,275.16259870237053,-1877.3861863738562,-5210.53799970542,16349.090987182139,1726.953083742483,1324.252991845923,275.6975021734084
-1808.0,-5072.0,16196.0,1699.0,1295.0,299.0,-1764.8714421910524,-5194.494019461579,16226.890822711068,1690.6462169951383,1309.5838673587484,305.16757245135824,-1821.5075076991284,-4917.7884865671,16165.231846322453,1703.6391147030934,1283.917671000634,296.91184217652557,-1695.6661298575254,-5011.865489887213,16235.25245020811,1678.462981386438,1288.7359276112566,281.1562581368964,-1859.9729665768168,-5130.627256436459,16097.778371591892,1718.683602148069,1289.9370842565997,326.29357933960387,-1856.1576785045665,-5115.678172270676,16200.951096740504,1699.1993521533586,1302.716210750451,300.0265567385544,-1697.689222296392,-4849.339147303549,16383.800765897311,1701.3361072721038,1312.6605264098305,296.54633813004995,-1685.4023902635467,-5145.4962235759085,16192.060499055713,1712.2765592580242,1287.7745497488936,287.0665980362371,-1768.5282521768368,-5086.8324694561525,16409.485555816547,1687.8620396732806,1288.522197353696,299.3833203716754,-1705.9942060026126,-5103.439467156114,16266.816623778122,1694.635239285716,1288.605641464182,310.1248720194684,-1847.2829798896544,-4967.939101960515,16277.906185950611,1699.7931763428346,1290.6617974154858,298.0543965409687,-1940.7478983994363,-5182.682035033347,16314.461032651066,1696.543456420548,1293.9597099443224,293.0441058324781
-1852.0,-5136.0,16132.0,1790.0,1290.0,288.0,-2006.5674853440607,-5077.269184313806,16253.806228533314,1782.7748109938707,1277.2902786090606,300.09268339782767,-1680.6365230133972,-5104.173948009242,16182.625280397691,1773.3289266670345,1289.392507722288,285.7031500227724,-1867.1053402426924,-4988.606444118376,16137.055482218548,1779.6300549641237,1296.5706824380356,292.4502721589054,-1813.1365733203802,-5012.76309393296,16184.661656548564,1793.4519115876442,1269.9470382192226,303.61854954198714,-1984.3407716763995,-5202.687629592418,16215.728615358861,1791.0903730485181,1282.3442264080677,284.3748666211028,-1958.67448751206,-5027.036101113933,16032.906761230175,1796.5935796140523,1299.842885897516,290.9585108395835,-1956.5270270374856,-5110.079534956608,15972.081434916176,1785.433295801384,1286.0386792983759,269.84406506601294,-1859.407065451624,-5239.339216635583,16154.492506808523,1791.3357838258596,1273.5989694301543,298.939710953087,-1839.9856421052045,-5256.158100438178,16062.01501751037,1781.6905213274015,1307.6097106251525,289.89291687561354,-1881.0915941233986,-5005.340331819972,16104.826016834615,1800.6307275807692,1288.740779024811,287.1720200524681,-1740.1120634992976,-5159.750333207829,16196.9625895205,1782.7055211484503,1290.882010961784,280.29126011212344
-1820.0,-5020.0,16220.0,1728.0,1266.0,318.0,-1944.6233907647588,-4932.4479779376215,16117.784959515579,1728.1346139235336,1274.150704753123,318.7586384979214,-1843.0501581065066,-4868.381727709682,16209.343878655774,1746.6000541756625,1273.4332985778458,304.2998859296384,-1961.2688708195365,-4901.720234314863,16501.965471725875,1736.9226712641373,1272.1761801572588,323.8725930420803,-1813.6137211074756,-5108.235612322794,16417.847876662927,1719.1005227617873,1266.1255032991269,306.11655867613115,-2023.6321964377537,-4948.344938397989,16129.868138853824,1738.2294515252431,1271.7749775536504,316.70278650279045,-1864.958351594723,-5123.284139572803,16126.097845307373,1745.0802682867409,1286.8690287924458,320.82302728204854,-1965.919805430482,-5121.869199898019,16248.611886490686,1721.746244866004,1263.456597818367,327.6550062050092,-1784.8033479795254,-5047.846167193549,16150.967591257186,1733.604988032427,1265.2294888537026,310.9307527176356,-2019.2370014384485,-5090.705884167193,16298.940789520211,1727.7816695815627,1289.1028937834908,308.7381777160811,-1801.3812729940094,-5029.237449050902,16187.950118857465,1728.4184821433148,1260.9891196980188,313.6477668767366,-1963.8688156897667,-5019.870170137156,16237.07695419533,1728.1656180716534,1258.4951830152752,320.14022810455606
-1884.0,-5080.0,16156.0,1742.0,1270.0,298.0,-1826.8591124329557,-4762.27792580264,15987.154452089051,1741.1058679703133,1271.8095488034903,306.38783075523185,-1989.6343720100942,-5047.053499133583,16111.180121326259,1758.5032004792013,1271.2785215082254,307.88967266991904,-1940.0560548607805,-5119.614240437255,16226.31935709135,1757.8558644374048,1278.8156573422157,300.1350394177467,-2001.6348555135107,-5038.2295518510045,16159.1948430741,1743.932742729928,1277.1489695515124,306.30505343627533,-1834.3652117989789,-5166.591996685256,15987.236626969523,1739.6790282180323,1270.8746108967734,298.10050729979406,-1739.3099383934186,-5057.861999561701,16061.863897782645,1750.2002819794109,1276.4260677415741,302.0087945603216,-1896.6674567329922,-5029.856575074695,16324.16055444979,1742.3334070846995,1276.1084264064366,296.0039993856543,-2050.1823261259565,-5113.38979435818,16317.674804884911,1739.2204284313723,1260.4636517789017,292.3927233460129,-1840.9271139005843,-4899.013488199921,16071.236813180405,1742.1209312066137,1265.151813685726,292.54741719748637,-2129.1534548181558,-5108.853842668934,16184.258431117183,1751.9846851851246,1260.8442541672785,288.1311665141821,-1967.294184086231,-5161.9239446849615,16145.829293223609,1752.3978533356728,1276.0310492944259,295.8579040646469
-1772.0,-5064.0,16240.0,1741.0,1299.0,282.0,-1925.2992637365246,-5147.311039031396,16161.019985721166,1741.628328468576,1293.98300338681,283.5289892697369,-1920.5811928366525,-5338.958119178859,16292.703431228445,1742.8089689995213,1301.4354397524382,286.25353466878613,-1650.0165002949125,-5265.651369770278,16137.238488752939,1742.6106272658096,1289.6731224457508,280.86342432838035,-1752.150771588069,-5134.5488306833995,16330.033998206893,1736.141800969227,1292.8368873678314,282.90070167304646,-1717.5898706297294,-5078.365582161514,16334.851082249601,1745.0377508799932,1296.40233173931,272.1054083123134,-1914.2634277048878,-5182.652088012601,16277.73025104815,1739.6994915734185,1291.2585241665188,277.7361916405323,-1685.586195583126,-5189.788305882231,16347.329620661714,1727.202846294638,1308.8626767505923,273.0211860856143,-1751.8375226793794,-5251.12142007727,16270.522477493147,1737.2416265773563,1300.5608964953615,298.76572183745935,-1645.9865945009935,-5077.929698548692,16158.177624854037,1732.3011965143562,1283.54402813405,282.07896155634137,-1779.0654878526693,-5064.842290776929,16342.839790879778,1730.9918712311867,1297.6477173462758,280.8398913574512,-1733.6017787774197,-5114.601812992243,16302.239705418262,1729.5190038631463,1307.7404624992043,281.7786502247652
-1840.0,-5076.0,16184.0,1717.0,1308.0,312.0,-1651.1580846877046,-4952.863101446701,16079.446043390839,1727.2801724607955,1301.8166619925453,305.16799492146254,-1902.9186066112745,-5070.819875449929,16169.419408275819,1729.8775881615206,1298.0952594881892,307.09892046886256,-1731.4450825793133,-5117.875394883646,16077.780148031154,1716.5283493449253,1311.2314725990204,311.3790520295082,-1859.6290835734417,-5195.701479851736,16087.76480725664,1736.9617060780147,1309.5268348383318,320.1175837733765,-1824.64064884236,-5308.869901394388,16306.943641314507,1713.7715708262256,1318.2865849250006,307.6644600552114,-1970.0441957807818,-5138.174791747308,16172.389689724247,1718.043261554702,1323.678730420028,318.5503162791037,-1694.3534486936082,-5160.02127321529,16116.973293471854,1721.4243577556197,1319.9954459664666,320.8038484016065,-1844.6391534754737,-5087.969171302791,16167.812952401742,1698.4460284643658,1296.403273940119,304.2036098596632,-1834.744054559435,-4777.870470742768,16200.554789243703,1725.7033535300825,1292.8959591783837,310.6835482108183,-1626.066627333182,-5050.110044522303,16171.766390424607,1695.6684458908735,1316.5340275355984,327.31098102759233,-1874.3670329292502,-5087.775014096781,15978.394814091107,1715.154640762969,1323.3410747455787,307.3401543389167
-1852.0,-5072.0,16256.0,1767.0,1328.0,311.0,-2016.3254677045372,-5280.065665339491,16299.828601571337,1757.5513495226419,1323.4425480981608,317.1238381527933,-1658.1589553709564,-5100.368959392049,16099.967045539308,1756.4500030580707,1313.2560084070435,309.1266672272107,-1826.9912779639956,-5200.716577057545,16349.994106968827,1778.4033259825371,1314.670426428725,295.083950358498,-1820.996226710384,-4944.980009263325,16224.981742711392,1753.9051224706016,1337.1119709018656,315.53552856472925,-2025.3972425858037,-5103.692999530356,16385.377474453373,1756.3813189504494,1338.7674267427865,306.37792288342126,-1834.1726855340462,-5066.470114874465,16064.569267698207,1772.2314459290537,1334.6255372564638,294.0292801701191,-1869.647490797228,-4911.356513940893,16256.445996060462,1770.261987060938,1322.823746495846,313.45513839351537,-1826.2283080828092,-5037.085024666203,16502.14478572091,1761.9108911490653,1318.032395856418,310.7191815953911,-1928.1612018815724,-5192.039227737428,16368.940393842462,1777.5172508294884,1329.3560172490133,314.9400441159919,-1754.1073455500564,-5064.410691175459,16406.806712622492,1770.0750213318577,1325.570952865402,318.60255893491,-1808.447647020949,-4992.284828829687,16160.0448801688,1763.9050027083438,1310.8101384948875,309.9979073652678
-1848.0,-5056.0,16188.0,1759.0,1283.0,323.0,-1827.5048610349966,-5106.118294739076,16331.506249163755,1767.188711064786,1288.8401444797769,317.11317000140696,-1979.059074357879,-5138.809930445133,16246.397774786667,1770.9360680194975,1285.6841106607583,324.689522852779,-1872.604934732539,-5093.36637096001,16270.361882442174,1730.6090249812069,1278.3647082124091,325.48994997410153,-1822.710557077056,-5159.021312178175,16031.239571921253,1753.413620445907,1280.5318355384177,336.0252288755817,-1857.8035313219566,-5126.143454872209,16309.154553909168,1761.3644903690176,1277.856690607273,313.6267518527538,-1887.0420162271903,-4973.742170802481,16179.215170093996,1751.1529254492798,1293.451356690674,326.1186914700979,-1883.5465473779504,-5137.07298721608,16215.303070620575,1755.141945963341,1298.8452095218377,326.81352659164764,-1672.6528457446097,-4936.77989046577,16091.995880524448,1761.7121418479435,1283.2400716069424,319.0972244337794,-1898.1257134175294,-4945.4592085538425,16176.805083839248,1744.106723868675,1275.3465275201913,311.19567122257735,-1778.0633280414977,-5103.416533630376,16241.376397386088,1753.0081276335795,1274.4099955008678,330.0185283260217,-1941.036435546931,-5061.807239473428,16079.483204730606,1770.6690635168097,1278.0303425533205,314.0527830290891
-1856.0,-5016.0,16172.0,1758.0,1353.0,306.0,-1746.5997242487633,-4729.077340899532,16519.175640780246,1756.1343997817746,1349.1356467955422,308.41719094888543,-1816.0381168694032,-4998.881863984378,16063.5328789068,1752.749706668071,1338.0786098915214,298.5860621149535,-1702.2597831274206,-4900.848826582837,16230.977217436222,1750.5992943518804,1338.5248027435814,309.24565833508024,-1737.6109070128416,-4846.860906397796,16219.742047443766,1756.290698404205,1356.1191981343043,313.47180248909945,-1973.7786499001757,-5146.341560803167,16090.462018520775,1758.0418667236208,1344.1859746936498,305.4454091807043,-1778.3475360726636,-4998.627529335275,16039.917825071689,1763.5835997098634,1347.0758545876392,280.12084578799085,-1899.8522723906137,-4962.9962790646705,16171.666184963533,1753.719155522494,1363.216048185369,317.44171899402204,-1886.918129839162,-5029.957196258031,16204.140158594819,1754.0430089987856,1349.2726704635024,322.77007706015957,-1930.4873738334556,-4939.458021369175,16218.898675769546,1758.9538125352256,1352.4032389128745,312.74550873110314,-1663.8973482383271,-5103.404079364426,16197.312330697052,1761.938455081559,1344.2307821806608,301.2844503832133,-1971.494387594207,-4782.564340653469,16250.820074484009,1742.29284229442,1354.1956990641074,309.1635444210101
-1844.0,-5124.0,16200.0,1693.0,1287.0,277.0,-1808.3999205747505,-5152.577722657039,16246.382789239706,1677.361741429867,1289.3075143056958,295.9195407257022,-1821.3927678906555,-4990.576509874911,16219.078669280334,1690.7989475026563,1293.6086328869321,273.0885445963191,-1930.5375641979776,-5275.078497456702,16192.817612116607,1681.8443618312645,1288.0149495665646,295.44115764480284,-1846.8362790020142,-5044.830565067943,16119.629122731149,1686.3732784193041,1300.439945988292,285.3747537882038,-1791.5034231798386,-5118.262939360424,16207.941454014828,1692.6012977206858,1276.8279548891005,267.5373259756862,-1768.559703245783,-5307.254164411913,16258.52239740576,1692.115470566211,1297.251721201563,294.3435469098065,-1940.6724154398655,-5123.796704360141,16176.038880654969,1685.7055982015904,1286.0184603733248,276.3170887885305,-1905.6616612734451,-5182.93697984361,16198.763918661234,1686.0083890857807,1269.1506598771023,262.1887287868209,-1777.4343300176092,-4936.882314697794,16145.330463821738,1692.7360900747485,1285.082050675434,284.65842935440634,-1843.2052868084932,-5184.634144070739,16240.111627432983,1711.6755236153147,1284.244162689147,269.01136144719976,-1901.7792069048323,-5133.4184589900005,16163.84521863453,1683.184274199802,1286.8584590862176,270.68042950570583
-1788.0,-5088.0,16268.0,1815.0,1278.0,310.0,-1804.560283435312,-5035.960689339474,16073.859811205437,1825.7176705366987,1293.136550813637,315.00890046793785,-1667.7603501690696,-5036.596236634995,16154.037920601015,1830.6745623095578,1274.1102678943573,317.0188535930397,-1766.7677620016939,-4893.903125304093,16121.779565935545,1823.995863774397,1283.2065426613387,320.0797576420349,-1712.2835407686982,-5015.05632223296,16274.443249530796,1817.3718794304193,1282.1825041355312,320.8332895858403,-1831.7958133348766,-5099.901572901072,16121.715500486993,1800.8324108820327,1297.7234749717868,326.0183858829164,-1722.5733821232095,-4930.357283741122,16343.267772244637,1800.2356233853525,1285.6502539436049,314.22884436571246,-1733.079436330295,-4916.351039726761,16313.55896632288,1801.4005506182552,1267.4910772335434,333.74250245208316,-1690.6698651297847,-5178.427117033474,16517.548988198545,1817.1056255363117,1264.3814091362979,305.2562819724297,-1722.5347539720665,-5130.966121708004,16359.655233223344,1819.0044398718487,1271.707322562112,324.1974213809501,-1728.6976497732132,-5024.28964542563,16418.415719915778,1799.5897286217353,1296.3402544237663,303.31938093981904,-1786.8905589499743,-4983.91072246273,16140.188108941078,1793.8905961119972,1275.9203169470427,300.5276403227995
-1776.0,-5036.0,16248.0,1748.0,1326.0,284.0,-1878.2859259025452,-5037.173869772207,16259.600333800197,1764.0546522591706,1333.0801633146443,297.0749370294783,-1956.3846158775202,-4967.190328368098,16412.19573041333,1753.9695523719836,1320.3733956283343,277.2015241342773,-1822.3788744993421,-5049.057764289406,16219.229994980198,1752.6301800538556,1320.0534098307835,287.7649979083019,-1668.9067050261776,-5063.927492884184,16319.445769921596,1738.7475696063234,1324.324862209242,272.4437817310252,-1767.456474664347,-4933.150212316216,16335.188624371563,1749.0398443509,1337.2434815581473,295.42644923652716,-1928.197837217503,-4998.982407986255,16302.783128715213,1740.0018276265364,1329.7489406918958,269.3517268080728,-1727.3363234038277,-4927.225928574958,16228.736853756687,1740.355536804803,1320.4356711452508,270.45719776076794,-1735.1173447259105,-5107.502877216033,16142.429694738908,1745.9327041354786,1326.0332634234474,268.9648732881257,-1710.5892852110676,-5107.382748292951,16271.856978742702,1751.2144260142502,1332.9873387274683,281.7986004748409,-1719.8803275732346,-4898.31351509242,16225.044954514291,1742.6142183761942,1321.3030888312994,266.2300365119016,-1795.6035512515462,-5089.084919682564,16139.44848579084,1767.7210052318064,1317.073856473533,294.3471458033743
-1744.0,-5080.0,16208.0,1739.0,1301.0,314.0,-1721.4742818572795,-5173.70218564209,16145.332885762935,1724.931601699915,1292.1824286720982,318.46986574154334,-1668.9001735100576,-5118.087338506482,16350.786733942612,1765.622932137429,1323.6192336602805,314.13342682092923,-1668.6036397745765,-5149.875513372058,16064.418571153883,1740.6754584100347,1309.8458138925103,322.21330009979874,-1800.0425156083124,-4928.447848373774,16110.267846366089,1733.8272962658102,1318.4591637998763,328.58865555182786,-1784.8384490972603,-5002.67346195395,16258.877264391122,1735.651089019287,1309.3715204547152,309.63678386921714,-1760.5865806040176,-5134.5098523801025,16129.327341161406,1727.910479425803,1310.7216485284546,310.24360421858137,-1654.2584784518258,-5107.279088514213,16184.046350664463,1755.4847774170576,1324.0823572110137,309.00240436720134,-1854.846991026864,-4982.747296095908,16285.516601931433,1748.019170955977,1300.853298028116,314.04147696030685,-1737.6060336687922,-4977.858134238763,16112.206761864203,1721.5303885791714,1286.6624049418836,315.0098402045201,-1801.1535710093517,-5093.466685687831,16202.99996376875,1735.4237926260002,1318.4147126036864,319.4203808898421,-1680.6817174946561,-5210.150659661464,16333.21824197509,1739.4198828089152,1298.863811773796,319.54136077707267
-1856.0,-5056.0,16244.0,1726.0,1307.0,285.0,-1699.4466548333778,-5070.370530520948,15989.055499215227,1709.898014070793,1321.1708734236788,286.48272335696316,-1926.0095304129122,-5109.176379263447,16251.265912341916,1715.6965335976804,1315.6144401994427,285.73352700154527,-1911.3153765968511,-4993.412342989227,16127.273171088456,1717.7223792128418,1296.7302564454267,293.750193722973,-1882.268465345218,-5238.66635708243,16367.630213286884,1733.5266856498636,1298.5414506094394,275.128507761337,-2012.6592492319228,-4963.423415555651,16332.076505724694,1737.7576766690313,1295.6693273149858,286.9473690021925,-1759.828515150687,-4903.824271946058,16328.503705443567,1727.468734851242,1301.7634257952905,289.1832163709809,-1792.771617691222,-5099.897895681881,16275.073084383217,1735.637106106034,1322.1259329233183,306.25990359384934,-1697.579473295632,-5090.942686413301,16293.5871699967,1714.7834645874868,1324.267326683589,287.6658521660741,-1901.9600587019079,-5232.3415964500155,16153.438936095252,1729.307732587442,1307.8599757062782,276.4524102135029,-1635.7469071244598,-5100.454193534747,16190.265424340672,1718.669267493904,1312.773073080545,298.3465839580568,-1815.6501693379373,-5239.172086128955,16142.30478105305,1727.2209219262013,1310.6682449329555,294.22349085064167
-1792.0,-5076.0,16224.0,1737.0,1296.0,302.0,-1685.0832545989767,-5051.6112679413945,16176.527084977297,1725.68805633975,1289.910345798259,306.5097786601638,-1564.3729771318854,-5096.422487662352,16324.022580266024,1743.275812508144,1299.7242006667148,298.7532218629808,-1597.5729978860245,-5118.1646764305015,16376.495968884894,1721.3312998164456,1282.851282040097,318.1928401005934,-1722.5095759171645,-5043.233221355737,16295.460469942374,1732.1816000246833,1285.0488403264635,288.28642551419625,-1826.9541807052908,-5243.723900176854,16449.09599844203,1734.636546269281,1308.3237599789954,287.1722628602882,-1902.892838692888,-5133.958073292761,16155.345963672853,1745.1415725169722,1317.2947372475842,301.6182426208166,-1811.31940185676,-4955.67043405219,16192.79515962178,1734.5596537478132,1301.917965903039,305.9839542343482,-1788.9740851588467,-5068.80066458905,16274.450339325074,1729.4157995091828,1284.4371750597359,296.14929442220676,-1527.6921897772631,-5074.56806579318,16156.725481121426,1734.3055118578745,1281.8417861262424,301.2871126674922,-1831.719320751544,-5137.279616577834,16234.000434169138,1723.2521466450096,1299.6119595530297,306.4575921184877,-1799.756025071795,-5079.385195891567,16273.0543868603,1746.9066780570356,1297.6723441619854,290.29049950965646
-1820.0,-5028.0,16248.0,1750.0,1317.0,321.0,-1733.0864831370086,-4879.488495968719,16028.549273807548,1743.584283524393,1316.2654980537643,309.16505979112355,-1780.9134066469326,-5095.458505865654,16328.787614529865,1726.7248558444674,1330.3159605206938,313.18376852683275,-1912.0828190768646,-4941.321751787156,16380.540268421304,1760.6362708023946,1308.839310155342,332.4270310161971,-1704.3726951415895,-4996.543939330072,16382.005082317064,1770.0014680603574,1324.914427196576,328.96028000074483,-1950.6824391048099,-4941.191112565434,16134.357667250079,1750.5588444625475,1309.1966957938168,314.2593338569772,-1735.0644063676352,-5030.843380081771,16203.969793409658,1740.2574119230235,1323.1596682646702,312.3315518072835,-1781.7882123373927,-4912.004782370698,16177.145831085065,1744.975969765207,1311.1185579318008,312.3807948615501,-1820.0352475022403,-4917.010618004914,16230.472733708333,1743.5349844768,1314.8151789432713,334.97947124929783,-1971.3022636614694,-5071.878676676364,16299.243455317199,1760.6244541844756,1302.6487704354763,315.653067652494,-1791.3060209362338,-5000.675302498648,16305.595650733116,1746.8485784445804,1323.3074173056873,316.11021213634973,-1724.8420293389318,-5140.833440518709,16344.875132804631,1759.8738868993394,1313.6022208996117,329.38027770797106
-1736.0,-5068.0,16168.0,1650.0,1245.0,314.0,-1806.6851199486905,-5217.03342200583,16199.265574318815,1655.6097197021138,1248.2938469221729,326.9427869013098,-1598.0907664957085,-4897.94318286836,16192.301401781062,1652.879762800254,1243.4430557054768,334.8586054126327,-1639.9946358997454,-4977.050931341676,16238.47623137824,1636.5568683748656,1233.306130855743,312.52035750592836,-1650.7488182679385,-5253.124479939832,16276.051794892752,1645.8601956770917,1240.2049505909906,303.0000386065108,-1864.0737042105059,-4988.775415976006,16182.473410244254,1642.5125992269263,1227.0475405060506,312.77218642617083,-1853.5634371972312,-5054.017708734481,16148.749176642128,1649.702756273101,1255.616281130292,295.68575239338554,-1798.2912741486184,-4958.210818972047,16097.687138249608,1651.6075431221632,1226.120375974946,315.4968742966451,-1532.1470163569388,-5071.206056404988,16142.558305421886,1651.9125307338695,1235.7099657734675,333.4624056193138,-1540.9235710249263,-5176.833612799584,16261.772131304924,1636.4213260107367,1244.0957681887514,314.6925824288159,-1751.648276710602,-4932.342777017297,16136.52419993238,1654.5574699191488,1242.3009116324877,300.5215652679946,-1755.4589040625683,-4910.661344612056,16030.411579768104,1648.9806759865492,1223.887928074771,311.5316720783524
-1876.0,-5088.0,15976.0,1960.0,1394.0,265.0,-1909.171020314148,-5117.865772678501,15988.39940099052,1940.1007828704196,1385.1817334808807,256.4285603106633,-1829.6844534619295,-5123.476341344915,15795.637583082089,1966.5831793984485,1411.6911302586718,258.81042892715533,-1981.330963288021,-5063.1588869378265,16000.453123285588,1970.1560482513773,1395.959082855142,258.99371074859295,-1913.09199327498,-5168.925994469899,15877.23728520396,1972.3310892333338,1374.102844445014,271.6290313472914,-1890.7111186532213,-5288.757965749802,15918.789937987844,1951.0053887669064,1391.8541189364562,257.47171946619943,-1795.9576659659535,-5101.068710323613,15975.538161296292,1959.432488233397,1405.4293283682794,274.2165478568464,-1866.9434879718892,-5115.0806177429595,16073.919756152714,1961.39212829749,1401.2505026694582,273.41237739910343,-1970.706119132483,-5105.880411979497,15867.749282693343,1958.1407645379722,1396.9603338537988,261.58200409235434,-1730.284062842177,-5288.488448489674,16029.831976354211,1964.0303624264247,1392.1826286310156,264.41458591204895,-1842.9116911057367,-5121.683007179288,15953.81542300468,1953.68718100338,1407.3944486741282,264.400877193159,-1993.942444014982,-5175.007996798467,16146.837637437962,1948.4020835389033,1397.8104461736066,277.39096223646095
-1668.0,-4932.0,16096.0,1632.0,1173.0,287.0,-1653.7004336626082,-4940.914297896764,16125.010160656246,1626.5951907721083,1179.023026487662,294.67377932592285,-1525.7531699446283,-4804.435550106167,16131.525925011314,1621.5396377071852,1174.2257484830889,267.11600270551884,-1616.1732908703545,-4730.151645480158,16104.770304540409,1636.8539160176745,1167.7810551039574,300.4101109976464,-1646.5448044210782,-5009.105703372121,16186.55961558679,1630.158906782502,1173.9532069859154,277.6472644946812,-1688.397537382661,-4728.468687184281,16017.051733916072,1642.9837302109256,1167.2189548710912,284.95711141194704,-1821.6391249599978,-4977.946888736209,16300.23981323232,1644.1103490423004,1179.304064730534,292.2065877618246,-1481.7955140234465,-4874.519105962553,16244.812892154689,1633.155889247167,1163.4908658480044,293.1011478565876,-1577.5642603942229,-4922.475871974056,16267.39775106425,1619.200854191884,1174.3649494701563,311.6924491670053,-1679.4328140230243,-4906.793725738743,16179.793505333157,1639.053273613843,1158.3815689729843,297.1393048671465,-1772.2654024062954,-4942.213840484464,16225.628979346875,1621.4340697397226,1167.4763373197604,274.817162204891,-1643.4726520006882,-5098.66893868631,16030.556972120452,1621.1122308477104,1169.0844547059282,301.57744120198964
-1924.0,-5212.0,16220.0,1771.0,1369.0,330.0,-1885.2011607645527,-5176.572738815966,16291.527455803198,1777.3251464030957,1375.7624711159772,318.61252726521013,-1865.4581388669344,-5186.66384985726,16338.811078545195,1768.3102953389396,1355.540374809009,331.7634480508337,-1836.8851229484042,-5174.845235061331,16220.102710394338,1771.3196059297456,1360.9296162452729,332.3837059796657,-1819.577091185932,-5176.639464303663,16237.895469690491,1768.157907676124,1375.5811794404763,344.6618214546818,-1697.9368609871653,-5312.986064872086,16326.648038196206,1777.1575394800482,1358.1138301652043,315.31626293596867,-1973.8344122743217,-5295.0529625428235,16319.06169928808,1767.430259162181,1370.7303482545612,326.6110180914708,-1959.495696584053,-5113.680390432284,16168.697537603603,1769.7645640771977,1355.8024963704645,320.30719268892534,-1951.8232924627016,-5137.931588252797,16039.099823826215,1771.1119861998939,1386.4332301733114,325.8791306735343,-1942.5095110855998,-5151.202847042275,16394.952756199167,1748.11368036582,1383.7289400065056,324.1499039570893,-2050.250977728908,-5042.852760148726,16260.15736429925,1756.1760217387189,1381.7233188680245,346.60703667036216,-1935.5906349482673,-5152.594294569229,16007.417629696069,1774.0980493467448,1356.659734410608,334.38440499167507
-1728.0,-4928.0,16188.0,1839.0,1282.0,337.0,-1608.309636927552,-5118.723274542488,16194.455319412655,1829.769523719355,1283.682822596191,337.13747316891494,-1775.3598602804982,-5015.34225758887,16227.07660237294,1838.741561904133,1276.1330119831964,328.9905851600994,-1815.8864777646204,-4948.969722767428,16119.330107093227,1824.4272021408678,1279.1691733378493,337.5382694361992,-1611.2880882901673,-4851.08478834375,16056.566843335693,1833.8724608659695,1296.6732605789744,348.4512499161675,-1717.8135489583035,-4904.523310919304,16239.18103851483,1836.7483477752626,1294.298169419975,350.210786340151,-1501.0608249247298,-4908.464921013378,16027.100881188147,1832.8713428511355,1292.0975910961138,326.5578472086406,-1563.6304328237418,-5052.566385937637,16143.905555901845,1840.8726411752896,1278.999947140186,335.1466461433717,-1654.1883076608706,-4802.315495770935,16058.807633264454,1841.0342630604869,1293.89725386214,324.87056608638716,-1770.689641045397,-5008.6853235513445,16252.793327905898,1847.4918477339777,1298.0175088416456,323.01574039141826,-1575.355501683827,-4928.486627384648,16183.762856267285,1826.3377045658324,1288.2478941388179,325.31106026642715,-1830.8843835835532,-4893.054235130695,16147.60162527965,1839.7495288417247,1282.3133643652486,336.28919382091846
-1804.0,-5120.0,16244.0,1588.0,1303.0,307.0,-2022.6170390004727,-5251.674472562622,16313.815829288053,1584.554403844731,1301.2856776005788,319.96365806787236,-1744.0152086242495,-5016.541651716368,16190.146731851191,1596.9384008054294,1316.6933447799477,304.6304525428915,-1714.2542635160028,-5252.5759834831215,16172.040090663504,1594.9005747775857,1285.5993216563172,323.15011302837945,-1801.1472273602951,-5180.8288456172595,16202.337943379813,1592.25768457787,1293.4835107268214,307.07556292276416,-1812.1873572021486,-5168.212720584745,16274.851917844488,1605.4516091335483,1300.3422643618144,304.9164017402853,-1819.9558611993698,-5025.90420358015,16150.443643314446,1570.1358908299187,1278.4134599201047,291.31434400019265,-1764.20185897124,-5151.099144700531,16223.183346576505,1558.9385475819097,1305.9431651954558,305.05898137279667,-1929.5839676097237,-4906.808157970892,16300.237023682741,1590.0442156682675,1312.3201155093875,313.8346510790264,-1801.6652975441193,-5005.489265294802,16275.787229341458,1584.5724507232649,1300.3265673683704,312.8566570158985,-1805.2786934982564,-5202.784755051774,16370.36449845194,1578.605259678924,1294.7043309139412,318.9116866038366,-1719.8893115140095,-5319.4448488885955,16295.712207290642,1585.0777770407385,1302.0694296296772,304.0411674461616
-1704.0,-5076.0,16208.0,1887.0,1282.0,310.0,-1735.290748800503,-5065.563803043386,16102.558024980988,1886.777637035993,1294.0685364210333,319.2079189492035,-1770.4226304232352,-4919.07717941776,16239.19384046923,1897.9142427988647,1282.1827566057962,317.4445157911845,-1687.9690407869698,-4907.770236708529,15990.919872861132,1883.0075749819448,1284.8650257379886,308.6331304861752,-1706.9289990774812,-5070.317876912287,16338.080831789952,1887.8426246452423,1292.4766641590286,303.2627896488961,-1509.9962409465297,-5099.15474376394,16266.463292752016,1874.7390380756044,1282.4279740321717,321.65888539589884,-1720.172513627438,-4989.3357919911705,16156.646947914525,1878.9083951972227,1309.845185545513,316.5849724982784,-1762.0933163077696,-5311.547517992332,16158.47530852283,1890.1725055721488,1273.0277802304765,293.9738983059247,-1760.8933577131438,-5033.4560615697565,16149.757009992543,1882.4822934700362,1286.6427434702189,319.2994738675941,-1749.0730877832348,-4961.361171352934,16190.490715775815,1875.0350943106573,1289.6074963858082,318.0261695246329,-1815.055575293553,-5280.735156298493,16186.943093800033,1905.7622068491553,1283.7410463415445,328.2083749938383,-1823.737468261175,-5252.289264911646,16266.754061532883,1890.1217550983777,1284.3216796366912,297.76329157685717
-1832.0,-4916.0,16252.0,1723.0,1294.0,277.0,-1955.548645663427,-4822.788431869402,16451.122730029867,1743.5253041040303,1297.2650911246085,278.4718401929987,-1973.8794435289988,-5123.82499368977,16190.547214951104,1713.7392120667807,1291.6520837597357,277.797198692484,-1828.1275719181638,-4910.459764588826,16302.362755955577,1719.1812362001492,1306.7542948230275,285.82916966627783,-1715.446864077619,-4876.552291753784,16283.201480350022,1732.5352228392348,1302.555484219288,274.98327935767213,-1641.5722212720257,-4906.722361427005,16109.309207841823,1734.227506573243,1299.3236509969715,263.2830926550306,-1921.4047944624674,-4909.7964959918745,16286.230155065674,1734.072023965565,1292.1360819698625,280.17329639899174,-1722.1992327379314,-5116.151362115325,16285.041074601986,1730.207450847335,1283.383871162911,302.02167244211296,-1761.6500207010272,-4845.981644490245,16292.238767092991,1736.0522213105678,1289.849530101138,272.9133856164739,-1710.3540813953186,-4863.910324575734,16223.829956971735,1718.4566337407396,1315.8446476454453,269.32429700212526,-1696.4017499645265,-4824.482055658498,16109.582965324675,1734.7611772259008,1296.8903867068902,281.27842694586246,-1788.2135721907425,-4880.601709176507,16296.823609362982,1704.962815817144,1303.8042203401214,277.98886399628844
-1860.0,-5120.0,16132.0,1640.0,1305.0,325.0,-1877.456638006682,-5082.97374761335,16038.926289662417,1658.980721736852,1296.9250581387516,313.15173606582795,-1848.890198964464,-5151.080645885943,16248.717160159062,1637.9485594301327,1312.0105157360042,327.38132184004814,-1800.6527860006684,-5203.040100349344,16089.526564191578,1643.1678426524986,1290.5464851087522,322.3111123600054,-1816.1683094367381,-5190.400461233297,16356.750960371468,1651.2499415670384,1288.5814651604044,332.6816667757187,-1845.0476858565278,-5274.792768113475,16180.830419411926,1632.4117218554416,1292.1833757319316,345.4573583507821,-1888.6060786069766,-5247.822477018843,16217.715161848972,1660.9227108631158,1304.9563988016985,313.77972404330154,-1979.8632874008222,-5123.4132468108855,16006.95698834785,1629.6191191438265,1297.3987027953722,325.2293346453173,-1886.465491092699,-5057.834285167268,15976.26358221744,1633.4692314973813,1307.5282561126387,326.5014896195799,-1820.675839583114,-5094.376229730384,16108.281329216,1632.4376235986251,1305.8732797450907,320.6987741268723,-1805.1483033900577,-5134.244173773467,16240.666332947323,1634.378825874201,1306.5512698504313,335.50819393554707,-1730.1474445731617,-5093.5216715867255,15963.312790246715,1641.9655011314544,1304.8928930983716,322.5290534335118
-1820.0,-4900.0,16152.0,1949.0,1251.0,272.0,-1733.8717276313835,-4975.837212295591,16169.962589711004,1948.5584305829216,1247.4453684436053,259.70034316937813,-1805.515282853738,-4890.630544059228,16174.403202910824,1945.830197251274,1235.018301696854,291.5931378519267,-1812.4909167719138,-4799.359765490318,16178.514357527982,1938.493025010917,1259.0169465785723,271.8568435764667,-1820.7283605995267,-4998.194447606152,16150.71229329542,1935.3887856234196,1260.2357557011012,279.74362621521016,-1798.556476482073,-4998.457127167647,16293.73132815786,1942.2146821300187,1242.5981074344056,274.8208070581963,-1627.1103168700724,-4945.20496440762,16134.708577841948,1958.1808072227589,1241.060955926125,266.4707597599101,-1878.911567249729,-4986.410538228278,16131.972609405602,1941.2617362374756,1260.2249279732534,270.3390817254513,-1900.5049690527685,-4849.894962919817,16178.360775435114,1944.1771185461837,1245.461453281641,276.68262656708333,-1966.7363711410135,-4785.772076428547,16210.381630657772,1962.8037629043374,1264.7996435220114,268.44896095469136,-1814.68042513508,-5042.20319780642,16097.452488667095,1961.257304705372,1271.2418496977334,277.9429671416567,-1876.952912121184,-5054.702055071327,16088.725697117094,1952.1044076636229,1265.3282619116164,267.41753164416974
-1740.0,-5060.0,16160.0,1501.0,1313.0,290.0,-1771.6581444384933,-4996.728124209972,16066.28395180503,1496.8566295767796,1308.414180125879,281.6852381060683,-1915.618870797633,-5102.071028925153,15949.827142697404,1487.0828156479897,1310.9277937221877,287.60215259763146,-1668.0351271764503,-5228.327787264027,16117.269400684567,1493.427641475384,1309.3083680840218,277.5667548432567,-1607.4040109843631,-5037.441768611018,16271.342027882225,1504.5739307618328,1298.3275133511947,271.8963260016624,-1743.877041445182,-5045.119183027176,16063.166083832666,1503.1127245400587,1321.3251628062117,291.7465788921525,-1550.4688113717484,-5009.122255034493,16158.604798516128,1493.363819465661,1314.5424824749941,314.46829963505246,-1602.1748162447052,-5045.415992597141,16125.687582018367,1507.3699578264402,1317.5367048290236,282.50345867194744,-1525.4252769649934,-4999.975438578145,16181.53975890558,1502.1602346434865,1308.5363770331892,291.50007325130383,-1916.671566575426,-5221.394249061009,16111.253557086065,1507.5924663972842,1295.787254641607,293.0320014988773,-1692.816091896761,-4900.742677059488,16104.907738832826,1506.0429244766472,1319.4593201827586,271.4490696509359,-1773.2512279544626,-5080.258682705281,16170.052058608153,1512.9718820482844,1302.4108460244286,283.72240382936354
-1772.0,-5196.0,16256.0,1868.0,1311.0,286.0,-1518.0805880990047,-5033.033987897258,16235.1024656804,1857.6662243333371,1300.3343218591392,290.8693626272046,-1622.5750789218812,-5148.461359177203,16320.585683193574,1847.2774330769048,1288.3412658500274,292.65885889184443,-1769.9599658086333,-5162.030864050646,16158.360250644117,1875.6822289987688,1309.6568438539364,301.90468968823774,-1803.1612727105837,-5176.009340287931,16393.030861697534,1871.2088730520834,1305.0102928262925,280.1559237407679,-1803.6101306867854,-5148.419916812328,16299.198439307045,1870.3301245510456,1299.5500354800163,281.28120536661146,-1671.7544882259738,-5221.3125054768725,16239.87967200253,1883.9422295068005,1312.4251585800914,281.3758489648208,-1603.4497692035902,-5095.163751435964,16246.380373699867,1843.1905250067123,1290.1471501039646,302.0848636991077,-1801.8864642442386,-5079.384179184885,16251.081947987452,1883.8863807652478,1316.1642072033458,292.3041328790739,-1692.194884998489,-4954.283558718073,16194.571376896853,1883.2202476842772,1302.0864921389193,282.4759271220717,-1806.3252828903835,-5230.592009335446,16304.693665506958,1859.767505293944,1297.9841969823153,303.21299941468334,-1720.941794225966,-5307.915620389056,16247.53571912538,1853.176986520888,1292.9243375646408,289.31728365069404
-1816.0,-4956.0,16156.0,1742.0,1282.0,318.0,-1963.6435095693446,-4721.812416622844,16131.573288298403,1740.9146221536666,1298.953951764319,344.4372226165611,-1849.411351872411,-4951.025442003478,16205.555194631945,1739.101660397359,1282.7221897672578,309.0230337508854,-1811.263736397346,-5017.862974215782,16315.709054083407,1730.8850874002267,1294.8641453060156,307.62667023084686,-1736.2493279368389,-4840.385687180402,16185.554494341342,1742.0249037196218,1270.3628097303445,330.88966547467834,-1777.2210916713855,-4764.0092598000865,16115.967387798246,1739.3097490010393,1283.4776225085498,323.24027964194033,-1824.2920626758446,-5007.026583731809,16083.90632036324,1725.7862659132545,1286.6774661535087,310.12337731303194,-1891.8598336334423,-4973.0788975578325,15904.92893354333,1740.9966841464268,1292.2197756871028,326.6027987187096,-1865.353318491126,-5003.620935111361,16137.782590253155,1729.8802124761528,1278.665036398527,323.82145284746997,-1769.6294809921849,-4853.615155545344,16111.23548816954,1731.7603189385634,1272.1435299236866,348.6636804429393,-1978.0310614763625,-5002.286296383963,16221.426658040653,1748.1203128472087,1282.9466972375214,328.8015402794434,-1770.708889107541,-4947.182676641815,16161.365973813265,1739.3178040160533,1283.779687244667,325.3588754062661
-1840.0,-5224.0,16164.0,1630.0,1299.0,312.0,-1752.6747163982152,-5328.346892006263,16214.414996371343,1654.0479652109987,1306.2936864336123,308.61395993057744,-1856.5709788018046,-5256.094686127177,16110.561218043125,1625.9399696024616,1304.6791087134982,298.06245509980783,-1957.656957459165,-5095.508135577038,16132.208951236484,1612.6953549740929,1293.8463203584151,318.38203980256736,-1916.3314709806848,-5150.239959315438,16172.822754800143,1620.6586375547872,1315.7004737506848,326.37728066260445,-1940.333158328355,-5269.992387017452,16271.052806804511,1636.0267666117722,1314.658858864114,300.0569491163411,-1973.709700910532,-5092.29563879755,16098.08607115122,1633.326863982803,1301.447062239858,316.1084915033255,-2015.548440425161,-5034.463598832495,15989.777381830969,1640.0931595818456,1298.8095880830501,302.9663590226696,-1964.1924050423443,-5097.007291987715,16156.672931258636,1630.6427848153958,1296.2592717022815,311.77879941790474,-1866.3265957061617,-5302.6399304848965,16292.17564368873,1627.0313894501232,1310.6441391580126,332.5123897700141,-1826.540457538617,-5129.456090000898,16035.987089687575,1638.782404880661,1292.2247453316184,312.77823976973787,-1973.9031885534343,-5221.156984583534,16203.260944843705,1630.292480526179,1308.3400776339033,320.4991573186734
-1824.0,-5032.0,16256.0,1931.0,1319.0,294.0,-1740.1523012075274,-5178.869766015447,16320.705219628111,1906.3051364436456,1308.819052910232,300.35742144984886,-1899.72846467263,-5033.590964110895,16180.00892311671,1916.915729768331,1318.2081319023061,298.9719391970202,-1836.0427677799235,-4858.79699971661,16230.807891353319,1923.8639018879362,1324.8690311699652,292.3364574782015,-1766.3293562102347,-5241.347797705571,16212.17309385602,1931.0464155754314,1333.290173860795,297.64832408280256,-1909.1083289526807,-4947.5242485459385,16095.10240787481,1926.915014989429,1330.2901856300484,286.86328990033235,-1933.605665557399,-4894.658372780627,16453.69036022046,1934.7456567088645,1333.402478796925,291.62761357421846,-1719.2930165492394,-5146.761454423863,16084.356553131705,1923.3498851412417,1302.774678065031,296.41931058687095,-1869.3640683386445,-5124.317063021881,16198.116014999427,1928.8588274697893,1323.752226865464,302.7216947880678,-1873.5096231568327,-5053.68767428407,16224.436028903488,1916.348528514802,1304.3276053845027,303.3228280360122,-1998.3292920667698,-5155.32997376186,16283.109622213555,1935.378961744792,1306.0918933686983,281.7931286301399,-1793.46645357893,-4934.247892317839,16303.607083026343,1925.5815747299187,1310.9050046663044,288.48494850246976
-1792.0,-4996.0,16256.0,1606.0,1244.0,325.0,-1864.9845279039034,-5109.827461780146,16450.84286124094,1590.8904247069402,1246.3937611506947,334.6538677622039,-1726.3719590481076,-5020.567822559222,16299.708657097972,1621.8253674762104,1254.55452247045,310.8489196038501,-1650.311100867901,-4933.819744872426,16198.392476823563,1598.4787891350397,1240.7312248944208,331.59937979526,-1566.4359974387564,-4953.455872090688,16304.749017379858,1590.5513384543792,1237.345979172565,322.2573049841418,-1823.7608033726121,-5003.364962202025,16352.301724554149,1613.1971010409127,1261.4064741935058,323.7147438049075,-1621.2792979781375,-5170.121232612899,16357.258516804402,1603.329264821093,1241.9873780492928,337.11458981942013,-1894.998272764689,-4783.99183031187,16175.811612390418,1591.3332965333998,1239.727460044599,321.799154593858,-1657.7645058104388,-4939.04926014512,16216.855825219047,1601.8553376248833,1240.5631527602923,329.9376186618458,-1633.0557266493215,-5037.986676029734,16235.264629457934,1607.0962294970993,1233.7030575460462,323.9718520157163,-1831.561311616342,-5073.204644097473,16317.315061329396,1618.8581337480375,1245.8031301916858,323.2599628400545,-1791.5065515787255,-5123.241982525367,16416.147006051193,1607.6170352755446,1249.8606328700207,339.5540272321073
-1836.0,-5168.0,16156.0,1741.0,1313.0,298.0,-1875.9810482692965,-5216.890962226777,16302.843418582514,1755.393533336471,1313.3507947220512,285.37053566378574,-1914.6327341751978,-5101.572037032092,16297.922971265101,1737.1476166621837,1312.3349446171312,293.45155379326536,-1653.6420721305049,-5115.583516522027,16221.654373948162,1743.6187950174392,1321.7826079888557,299.30746998314834,-1965.3245918571893,-5268.657233994705,16262.716844470058,1740.659142600656,1325.3126070795286,304.393338818748,-1767.1335488781456,-5286.614966472329,16321.348148610927,1745.1677072762595,1312.3646471621198,315.80977406731205,-1983.1194479932894,-5159.111851286385,16325.760562462903,1757.4765276395997,1303.0289721966608,291.9502554066133,-1742.9530517309743,-5147.378373894988,16133.561782788593,1745.403108788782,1317.4892854213758,286.57751727161036,-1813.3817398808228,-5174.13829260316,16143.146242603585,1741.1149754867538,1320.3755776540304,303.4396482723714,-1889.614536150126,-5188.9733738496325,16193.091316412283,1730.543557831645,1321.325748326658,313.4296519359918,-2044.8877740434386,-5132.97981990408,16313.135986065066,1748.6105979309516,1333.0963924170553,320.1914895639735,-1796.1382453238878,-5081.156040850083,16209.784618049849,1738.6729109935607,1309.870545719856,281.5467150443477
-1808.0,-4956.0,16232.0,1838.0,1330.0,282.0,-1903.0329143470249,-4872.909962441728,16275.890259888016,1839.3148479111194,1328.3460596961577,273.81771557052707,-1968.885387243241,-5063.863481375167,16265.04872601343,1842.0898776741124,1344.418249226082,278.9579852996493,-1618.538918521548,-5063.1167128545885,16365.124825572157,1838.0448767251942,1321.102821530446,297.3148774253957,-1986.746576610331,-4833.019699938989,16087.920138594687,1834.396183033561,1325.8804245788638,283.12754263695774,-1821.1478602466889,-4952.734471874623,16263.513106469192,1845.104435866624,1335.0182411325213,290.4791714558451,-1717.1106525922535,-4869.521593890466,16067.381168871741,1846.7921265028456,1329.9197796132023,274.61290262319824,-1945.5892590448855,-4903.853030746713,16225.78996208219,1842.1024854583516,1320.1422389225388,277.2137763336351,-1866.2200162512408,-5214.113456447363,16314.1278134705,1857.4118017732471,1328.8738282004163,299.2429185710239,-1886.4615032108154,-4804.319067355454,16292.859825338057,1846.040456161763,1327.5792410914173,274.4068465179336,-1778.94874228641,-4964.528577834191,16152.0733017211,1822.9639382002867,1329.2491256335923,272.36781273506256,-1777.746468512953,-5153.15618114614,16042.845441043355,1845.1273212272356,1328.3244758210074,274.90315444358714
-1792.0,-5152.0,16172.0,1557.0,1271.0,295.0,-1789.671877659475,-5083.683743364507,16223.62938132461,1573.1159017038583,1280.2347215462207,313.6347737609224,-1787.0034999734648,-4987.812653937529,16246.3181595275,1562.9165257327622,1251.8070827765443,293.66262697546233,-1898.3607083968639,-5317.83176973409,16352.355207859482,1566.192065928124,1265.4921628988734,295.7243483211663,-1653.2768781543693,-5176.577901615193,16273.018062552923,1553.3090900604109,1265.937637489236,294.18002147605796,-1821.7478110941047,-5059.365136877333,15970.018434131205,1537.3309729390899,1267.5515227949602,292.200000351393,-1920.0963772522114,-5189.721907385605,16296.951858557239,1551.6742645383843,1265.4655459178655,274.41441782529046,-1802.722173968512,-5167.674344722423,16127.943517024187,1559.5319887486662,1256.6414311922863,292.12363183975907,-2026.1145590257738,-5210.895926204539,16208.39632610522,1561.873320014896,1266.9521744407132,287.97560161118764,-1735.9839268940816,-5155.995937875035,16260.406120409141,1571.967783921087,1274.572499546225,286.75214707252843,-1730.286506179118,-5072.368432060457,16184.069875234638,1566.7790782470054,1279.225517374525,295.8711108688472,-1826.6747534044146,-5189.424028182263,16215.34810158858,1559.1053095881002,1272.2015542827057,295.55299907767744
-1872.0,-5092.0,16204.0,1887.0,1330.0,290.0,-2010.8025605354103,-4892.188547913335,16257.578678185486,1899.608641895086,1324.982222376952,288.62150709736494,-1777.2014622474305,-5107.285658314739,16338.40658936172,1890.274315397121,1331.1895305799392,301.0962661268966,-1804.4176369905324,-5061.055641651787,16101.63221461669,1884.419455625935,1328.8800791675865,282.8576566690786,-1863.2023467581148,-5089.9367177824115,16247.087072288712,1873.727824154286,1325.6891377739155,303.69186929390963,-1887.820350306104,-5096.845001077989,16284.998033698399,1901.4012546921458,1328.8302534077277,289.1429904641877,-1830.6143834274794,-5007.756002232441,16233.635853930604,1891.2352361365124,1318.6142024062317,308.8540475575455,-1774.5985919300933,-5100.905662432656,16288.357240336985,1896.7717036955416,1319.4120315997866,296.1420331609329,-1709.297483132291,-5207.583821711164,16111.357037129656,1868.6480143726837,1325.400813404587,274.7079221246743,-1731.6060594694322,-4931.82964681401,16237.375237995639,1880.4008090288587,1318.1199803054815,280.3089799103719,-1807.1028828303365,-5063.5661008724655,16149.800610104561,1884.7658911040908,1345.1377044979693,267.0947036360477,-1760.490628105221,-5038.028199715553,16194.810235256919,1893.6104584745967,1339.9360099161893,287.1768312417448
-1744.0,-4972.0,16272.0,1694.0,1286.0,261.0,-1604.7986509306036,-4872.490783713259,16128.90574330057,1696.5150013774248,1293.5642061006297,251.42269993564267,-1596.4493991727147,-4852.086377343787,16409.874428269897,1689.1268025890856,1287.3868062362944,262.4771216860217,-1806.8030141194993,-4936.547514942417,16216.219542902527,1698.9037801072507,1275.8395663665706,260.37245415534846,-1606.4724493880642,-4961.528851185146,16444.89961602814,1699.182265413578,1266.6133440927292,249.08258519021126,-1859.3748735680508,-4818.225847382656,16461.184235049954,1695.5128490377942,1269.7525274213979,250.87288173688302,-1663.8367363180173,-4789.27829481133,16239.99569593431,1685.975116164128,1280.4354602536312,270.63074107925297,-1744.1757471157496,-4765.425301723776,16116.912921872638,1704.337531813974,1283.6922631986558,256.5215505872904,-1651.1837294518768,-4963.85741016877,16194.919235189775,1696.0981487388174,1283.5756833576324,283.3305644025495,-1720.4332165332025,-5105.6591909351255,16198.640650903266,1684.427100116299,1290.7002548960807,261.4072742385892,-1663.343206725621,-4988.112123763133,16310.56346768652,1714.0103031132253,1271.8820794785272,256.89151923490306,-1672.8827097469998,-4894.88038405624,16446.037401782058,1700.8985640046062,1307.256029653583,256.6177112048343
-1840.0,-5100.0,16040.0,1652.0,1284.0,310.0,-1743.3023804528214,-5153.626761029354,15975.65969024083,1649.7675401132647,1285.1341923595435,331.0015243441301,-1845.6942873728135,-5050.454758089716,15942.860733794667,1658.2461788164749,1285.7993083867063,299.87490424279065,-1877.5029336589964,-4923.020703934443,15856.174723248105,1655.114218800775,1281.2960812122315,326.1002515385211,-1833.3823465525138,-5099.61397750749,15974.53149535427,1656.143245696247,1279.590761718975,306.4853019406132,-1690.4191874580733,-5094.291622736254,15968.622062101744,1663.645740031253,1286.1262024280575,313.5432224445133,-1980.7652556827152,-5104.391591970213,15933.08269125604,1656.7924612812433,1290.8113957325156,312.3570416409903,-1943.6529747114541,-5205.788190981601,16147.631395736998,1642.0660815043993,1276.7763419871176,310.8562226228793,-1844.177885982822,-5196.949016087547,15972.191029834432,1640.6339062128618,1290.8492824978923,290.7668059656136,-1875.4445687528685,-5126.181281407163,15996.494077240368,1642.7936490871525,1293.7610821914338,313.34700639967343,-1925.0549902110606,-5204.200832756722,16105.827631989072,1659.5112753879052,1290.6398147756536,316.1241577741846,-1795.1950247039342,-5037.508764684107,16025.238439430681,1626.89772626717,1283.5279613639343,303.2048355011135
-1816.0,-5020.0,16176.0,1941.0,1298.0,259.0,-1891.4522219853927,-4838.124888570004,16200.364757927211,1949.7369612868165,1297.7321526571163,255.5446158708354,-1950.0577132201313,-4976.7635315232765,16269.194938018702,1935.6088725790644,1296.6420054927744,258.2783073738834,-1936.4064004965617,-5108.896979390403,16036.617125890209,1953.6755038843307,1300.5680604316956,241.81738397633808,-1744.0650138528863,-5071.061601651464,16109.732125437426,1940.4134297356727,1300.3773864137274,262.9959097596118,-1723.4244188537143,-4891.719166994248,16249.76296539648,1948.5339025915373,1308.1853258664821,262.66441859413453,-1884.8706091006754,-5005.734365257819,16152.1371566902,1940.9802940285128,1310.9547201257726,269.53539387466026,-1783.270584724041,-5022.181251036691,16038.278376594883,1934.4328071269713,1303.40380249574,258.8740932448729,-1616.8601757777185,-4946.034344397187,16170.20397482934,1937.7627454154833,1315.3252861530066,266.67487110749295,-1764.0353562379735,-5046.698891791056,16202.755691075692,1940.3950729553246,1291.7701724554838,278.5959240324778,-1763.914399671964,-4878.29750077982,15955.130792010243,1953.6836737941287,1290.863254918418,256.3204507573713,-1932.5609082357091,-5084.640741712172,16394.61597827487,1929.7225755432275,1309.577236189122,270.76135159340686
-1864.0,-5040.0,16240.0,1519.0,1285.0,340.0,-1987.3293958582879,-5075.8561900710665,16290.319821985013,1517.632594522501,1303.0544406967174,347.4112296550794,-1811.1025300193385,-4981.595277379657,16111.607658434608,1500.72557026317,1293.401367693779,351.4866704105594,-1942.566608602313,-4907.659209125995,16134.747684341299,1518.864066244824,1284.4529355404281,319.66319136224905,-1878.7726815894603,-5144.55850993779,16395.413125636056,1521.462965343443,1278.5830678216414,358.66599597361795,-1724.1093515465245,-5214.763810786291,16249.406440730487,1526.4646197457628,1275.0064467870263,343.14390181285574,-2044.32972364695,-4775.545713883877,16363.97427808136,1538.4666129256686,1276.5090060724715,355.46495450573525,-1979.062323234314,-5057.291664554935,16343.782488935627,1527.3080100836141,1279.9581576121993,337.2439576249325,-1766.382231393044,-5227.598399892414,16388.958885079213,1531.8790444949645,1280.9733900036845,331.82572617292914,-1923.5238591805987,-4961.833506095706,16035.461320976154,1522.9254636507449,1281.2075345032638,336.65473376520123,-1832.6538579676178,-5085.882604041501,16378.205507356906,1507.3465758344905,1275.6289950012676,340.1865868937987,-1855.8537306998498,-5110.314894008615,16438.02716135816,1521.3026889617781,1272.5621518817193,342.84274871728167
-1824.0,-5208.0,16208.0,1872.0,1344.0,336.0,-1800.677505184022,-5259.505311282795,16129.671857566103,1876.1392164599754,1339.7204290417176,350.42981022418815,-1869.3306612076879,-5283.181921815803,16204.84281531829,1867.5403901090515,1349.1385371225047,356.8631531521445,-1716.7653582930584,-5076.468547456031,16086.932647681611,1866.641972348017,1325.3139385610978,335.2980622405025,-1798.1501188455115,-5189.778154144788,16207.731382802345,1890.1366015925685,1356.2527294574202,313.0393202625888,-1950.9135774646802,-5053.588306229679,16368.972467223597,1891.6076520295119,1360.9814741142077,333.3436633089562,-1891.0216873819436,-5158.8242098816,16276.953656987765,1866.4058051076327,1320.7628209575971,333.3969663839473,-1795.6073418358797,-5033.980534256066,16231.897145050336,1882.4063105894825,1350.5589162819374,336.04171561592375,-1920.304087555387,-5232.769822986238,16253.77272257897,1864.9556765180648,1355.9461735095235,343.0788851488222,-1986.4303170250932,-5192.7985690851165,16065.050914181744,1878.9185994541535,1344.54732342657,337.96519559169417,-1721.9152859700428,-5224.881444248072,16147.683356445865,1870.3216779685265,1359.4607754842152,331.5905301698491,-1782.1022009397684,-5040.564321521008,16064.485726888015,1866.1601396506546,1337.9135634838997,330.62352489650704
-1796.0,-4948.0,16264.0,1748.0,1282.0,305.0,-1852.7787644041891,-4914.727939034298,16100.341545487045,1761.8012059437344,1280.6846451757685,297.7814978238552,-1813.666303036218,-5098.385477304866,16397.44961539641,1756.6385164957562,1286.6081967850273,297.9733334551539,-1736.815877643321,-4859.001398300887,16362.272663750227,1751.994914291291,1256.8472434234866,324.5637909833715,-1724.1282953720984,-4934.913705927489,16275.771461705332,1737.4009772923241,1300.1343969295328,291.03916066825445,-1812.2571014509567,-4899.284864207326,16224.903619802688,1758.9577935402451,1278.8642280687652,295.4944290260547,-1862.224180618124,-4976.1373545205,16277.477011902087,1746.4610482533874,1303.824047225703,312.77930960110257,-1747.054614575561,-4811.121163027474,16238.14106185314,1751.0366056317303,1283.2263279899119,299.9153374193999,-1649.7005959515927,-5070.793261142748,16182.722198731073,1748.7261461612802,1283.8656713057667,314.0422060162572,-1810.587369365979,-4923.058252380873,16109.750237868528,1739.9675483696722,1285.774737471355,310.0023960417026,-1808.727048613888,-5007.202955790864,16249.015358025701,1754.8950687254749,1285.5815127349017,309.15342102577716,-1870.10447664245,-5037.966165709917,16232.943929176656,1762.6194675181287,1289.5427583686376,304.535247822069
-1788.0,-5176.0,16108.0,1611.0,1329.0,355.0,-1727.4825046290161,-5258.94969428713,15966.960062022657,1607.6117808079039,1329.2417970150598,347.074402381781,-1970.0027028704774,-5237.298584598637,16177.063861984183,1614.7770811901248,1335.6741926405732,343.94621006091063,-1844.9938495551644,-5344.498322003704,15998.530194430305,1600.4975582049883,1344.791903119755,354.351541301078,-1949.3966318487521,-5042.064882991448,16240.753740000873,1599.1976391723,1316.8637290907222,381.28701106182615,-1862.0815185658116,-5136.473040817117,16138.940957326688,1614.7629921793566,1333.998106721871,363.54962668652524,-1724.7791559856576,-5187.297578142506,16142.020162854684,1593.3476059522122,1326.0480516631321,348.61639555835967,-1859.7824397324985,-5400.005049156027,16271.313227307292,1612.3870187567318,1336.4029598202912,343.9748516498469,-1855.743524265557,-5142.592029904246,16170.248976591849,1625.4812502603777,1325.1089939956253,358.259116266429,-1779.920427805181,-5377.472489055052,15900.967171286115,1609.1062170178354,1320.1677534371195,368.64621713884605,-1858.429345022494,-5119.896778071912,16222.621864377084,1613.4415657728266,1330.9347492727284,359.64877444745673,-1837.9148723086055,-5301.513417085156,15998.2742588187,1628.4458691639484,1306.819446142696,339.88512273321345
-1812.0,-5060.0,16264.0,1969.0,1298.0,292.0,-1701.4017426159623,-5090.121374436955,16267.054057498553,1970.207503480259,1303.6588103883603,287.9970177357592,-1873.3408251457308,-4947.841026092799,16238.539827644163,1965.458813199709,1301.1972925452405,305.3595458080711,-1877.838172116886,-4927.402044830823,16233.076428379383,1974.578168998317,1297.7850049808928,298.12196989839316,-1880.434231563263,-4939.206111355141,16511.610380491293,1960.6480250853713,1293.609290399594,294.3038888230533,-1930.136254691397,-5022.003473527602,16390.27990982177,1967.5326480237495,1310.1791613370513,305.7780072336036,-1923.2152878353306,-5368.715781503387,16244.444906245213,1989.5773083310767,1288.2602651468715,283.1415357808285,-1711.979187605608,-5231.43677657894,16270.648863462762,1971.6438094315722,1308.5902882676928,288.5827389642143,-1808.9970556894334,-5078.674826899651,16264.031312081279,1968.5696077191992,1294.3755111890603,288.72700050031443,-1742.937196642387,-4888.301056238546,16261.117562148991,1965.8328551190646,1305.0430873240755,296.72454570712705,-1751.7911457336602,-4949.237303936155,16354.407997797129,1972.5571582015032,1314.592401024342,292.9816979128428,-1880.1405062092,-5098.84809460609,16160.783307713622,1974.7494362077966,1288.6201767869172,280.3285286969438
-1820.0,-5008.0,16176.0,1547.0,1278.0,317.0,-1785.5805536128566,-4996.407464596052,16144.946512585982,1555.7164546006004,1284.0881730309138,299.0503649467048,-1800.4759326456153,-4911.75816203353,16131.218210485851,1550.0229970534465,1275.4486898243513,316.6719562888729,-2097.9581889976366,-5030.951762489536,16078.641816862939,1540.4556769896835,1280.7833448246204,329.18002088424913,-1948.205465917474,-4988.124723577551,16049.090453423061,1538.8323215586465,1281.0548019036248,310.99835372843563,-1758.558485751847,-5033.912509549962,16105.292316502186,1538.1873275649198,1288.086103343779,310.49782485974686,-1661.9376553466159,-4979.546738366487,16056.781388314088,1544.109622918022,1277.2662010749964,336.9494479261196,-1877.2551942787197,-5138.440976513718,16140.95998587571,1543.3586504811055,1273.28418278937,312.80648246442576,-1862.3651284997918,-5010.426045919002,16171.398860722446,1543.1281277060768,1271.3904219087567,307.0285610009526,-1764.7043621839614,-5133.759083209094,16123.185500112635,1562.2611263249614,1261.77418616751,344.67324348572816,-1892.6934760790114,-4873.120341808783,16171.435798788407,1543.2597310619976,1297.2569266250352,310.2390088254956,-1801.673209033778,-4891.960808165042,16188.022737199988,1559.2420822420036,1261.9053317497242,326.50756983040145
-1880.0,-5148.0,16176.0,1809.0,1283.0,271.0,-1813.3623163668635,-4939.811531698234,16169.233600427968,1802.3682156237362,1268.5435623824173,267.48399710135413,-1751.6899530199335,-5077.595361167709,16138.018658641902,1818.061038139518,1294.00503244348,272.7367450111176,-1870.088354232778,-5014.970067970817,16129.871074822253,1802.9760373684442,1269.2589345536067,278.6844800691556,-1999.9602815697162,-5295.603791363687,16240.57301250179,1803.387261260482,1258.7474886645816,268.04359189199585,-1822.378645160392,-5171.991530922976,16231.430120614177,1818.223855172515,1291.0541818265108,277.3234773905229,-1870.5886838796073,-5073.581222422186,16343.3229678384,1812.4953827240674,1268.501600678992,288.297814187593,-1941.155455440846,-5170.457306932473,16237.534644010282,1805.1185391487131,1281.0995798077604,265.2403163274716,-1817.7303738347398,-5089.828944981762,16174.946002601408,1819.5869203874508,1298.208662837405,262.77454914703713,-1791.0546219633532,-5077.869765651715,16083.785957866743,1797.131620733806,1278.1935533263247,270.3609995626253,-1821.2692656000543,-5094.891689718736,16118.011411354993,1801.9613844559474,1275.5975809950774,268.9427571215812,-1821.1032822075294,-5189.983469828171,16220.566122039943,1819.2174523937513,1286.226870743335,255.87675240599577
-1804.0,-4960.0,16228.0,1730.0,1296.0,289.0,-1915.229128729466,-4829.76470914195,16099.478115646556,1729.7014652636774,1281.8021088588953,271.6735309510724,-1765.6642061410946,-5022.786762255986,16574.04180169234,1735.0561697178387,1295.9491358074483,278.75542746473883,-1758.6042978204932,-4951.626243012994,16505.327589918663,1744.74967638098,1291.2232911379883,282.8322586644512,-1832.3329372244993,-4993.1346364160545,16314.463536866968,1726.625272343893,1291.772387307076,292.8200233062607,-1711.3956382125473,-4956.196160179564,16264.627578435247,1725.968454017141,1299.2674738582634,292.0856601676167,-1852.7094998466462,-4913.569463463702,16270.06271660622,1728.4944817390917,1296.4523665117003,289.3602730392879,-1754.5890726286282,-4974.278588361227,16127.566045181407,1738.797761254806,1313.8455365295597,279.3563145767898,-1818.0448740785753,-4886.485501078291,16060.70724629791,1734.8604358350208,1308.2715279412307,293.80666347609315,-1823.3510857866213,-5098.45428144544,16218.915632256825,1750.2208419435199,1313.0800882940287,294.5944360239909,-1739.6674522932244,-4976.710666027127,16167.752496843457,1743.2449808774365,1291.9314444439383,283.8977190613378,-1983.8053640278144,-4987.195172527976,16240.77058565415,1710.774027310606,1295.1929094690317,295.0806261225189
-1828.0,-5152.0,16140.0,1689.0,1296.0,327.0,-1886.1197182098815,-5283.4715725694,16136.794946415717,1687.4299813229966,1318.2547771586467,325.8918612935082,-1841.761030071647,-5205.687448563769,15958.691904034498,1685.2394258583345,1304.3428859640799,330.19910395000613,-1748.0132179168265,-5072.80487282662,16137.37266232455,1679.1539222156935,1282.9901838570051,316.3425522420128,-1868.2463451006865,-4878.938743697234,16237.49490468907,1691.773385328455,1305.9168409071751,332.4230780449004,-1671.5247506288588,-5174.923690933351,16134.162604285217,1698.9200368136535,1308.5046057138636,331.01990900088845,-1856.2651038736942,-5144.800334853986,16206.204879490198,1691.0561621778902,1283.7337267689213,321.25843323692766,-1803.295813304035,-5165.361118599708,16115.326681248005,1673.6253447153317,1299.2126142617426,330.0186623434456,-1896.8460924351793,-5081.807846927813,16003.573111301288,1687.7240938372654,1293.1449793574714,330.44027720202416,-1799.5928904105572,-5324.224474159917,16131.606696266423,1672.0813628530623,1305.4668407965064,321.08306514541147,-1870.0158512780915,-5221.136761806454,16186.28970126411,1691.8762307225672,1275.5106847069922,341.13157889488355,-1855.7911309411256,-5138.305087582443,16210.073100121484,1682.5382789609841,1287.762482022784,334.67897968004934
-1800.0,-5076.0,16224.0,1863.0,1294.0,300.0,-1638.8789633127133,-5137.9065761226875,16223.594099517937,1855.9018410892932,1284.6394852812966,293.58855590417954,-2011.513184551285,-5054.8855296736765,16338.938123437136,1850.6342294950944,1293.3970711849222,293.5723866479297,-1807.9823741792763,-4923.638373614884,16191.90772724638,1866.0440863325887,1310.3540605416945,296.71628404455305,-1850.0819469828114,-5202.326362709544,16270.324805856768,1846.4712257839533,1298.0183681957521,292.3162741073698,-1819.9135276755003,-5172.277486292107,16183.769756331858,1856.3313464796388,1296.5785310763163,304.46442033322234,-1902.6650897857362,-4992.255143831057,16182.443459473901,1876.6969470456288,1301.73520889877,290.84831209494473,-1895.1391845226694,-5119.924709984457,16291.423453787682,1849.7489958087967,1302.432726004645,306.00738664372767,-1690.729807712422,-5093.203774948643,16180.611007230465,1849.728708553545,1303.1963382161591,303.18429131577983,-1663.3531183353994,-5085.177106922413,16316.667125393527,1867.4133812409439,1283.6741033842538,290.048645468427,-1964.4290550692106,-5196.752054393541,16248.042494652014,1857.7201391776568,1285.6066075018819,303.3273225247878,-1747.7222899972794,-4895.146646360456,16386.035087469023,1876.4438171403626,1301.0728801459184,292.18890510701317
-1800.0,-5036.0,16332.0,1637.0,1269.0,324.0,-1768.746914989931,-5045.359516426787,16305.884689397628,1625.569018280549,1266.1804750212023,346.121230701363,-1999.1845411090085,-5146.191140380018,16308.674478723244,1634.5961877060088,1279.6066717876051,332.53774062324277,-1977.96333995552,-5049.755605810885,16318.004836375925,1646.2437404171553,1260.8091243631898,316.42814530474305,-1666.8445003480235,-5157.757949365359,16366.471242220596,1642.4784503490516,1266.3316742508207,317.43904583486864,-1721.7992597308958,-4936.983101231478,16244.621665881143,1625.2807830638483,1259.499030758648,332.8455716115874,-1706.0790784059002,-5100.3004941995,16341.351439744816,1639.5334180496263,1250.2246860069445,308.83959496934995,-1849.4000159171092,-5110.69627959235,16326.738382415331,1637.4246523452887,1276.3913550513023,314.6525458293315,-1737.2783995246648,-5028.666979353895,16426.75487211574,1635.329870223374,1269.981273947192,327.2497490678631,-1650.0527444839513,-5145.340906080434,16437.888773225244,1625.6590382611498,1262.0294024541363,328.89940310380206,-1742.8920920658427,-5159.383365047698,16236.1883948421,1662.2075316734706,1270.6834081672425,327.6493871748167,-1953.258999798202,-5027.6688081216125,16515.929644585085,1630.9291871592152,1274.5622293353358,325.89981111253826
-1848.0,-5072.0,16160.0,1808.0,1323.0,320.0,-1934.0244378725345,-5151.181797349306,16173.026527010134,1796.5756100291278,1316.3072675776205,307.4179528511453,-1779.1649406376603,-5156.092354799169,16274.592853096907,1819.9846905277723,1325.9012472467978,302.95929395935826,-1859.7026606653121,-5083.697361415005,16007.560430955798,1826.6530976695344,1325.5201351079995,320.94762546426426,-1869.420655122316,-5135.66620233942,16039.71218079037,1804.2309021053798,1320.5809353424202,302.7990438804218,-1778.295405205481,-5033.041850610851,16203.380678800997,1818.3647064491827,1327.2882439155735,328.8185634880812,-1645.8745002777528,-4924.018623933917,16248.834141661166,1825.2749893141568,1313.5723218654518,310.2222789845771,-1750.5916702566528,-5027.486587816004,16127.069361283713,1792.457120131511,1335.169449407648,316.3648618529318,-1950.5936255408772,-4948.17164738546,16158.005070377636,1813.3559389255201,1343.1974478723077,306.89723658722727,-1811.7990177424756,-5027.50042024275,16191.396426009214,1810.333762405253,1305.293203150925,320.2205423678039,-1743.7375885804472,-5159.54808047696,16181.003330007563,1804.0771865891033,1318.6086851213743,322.06738471735446,-1803.0571066033372,-5172.873500214824,16193.39109202624,1794.684350671051,1335.0091067361254,338.81926428695044
-1888.0,-5016.0,16256.0,1746.0,1327.0,287.0,-2004.5322936843017,-5088.694649212999,16367.482446386442,1749.2294735945597,1319.9946667232082,289.3212654300986,-1958.5864210538487,-4969.7898311676245,16241.63414358129,1741.7030950305918,1305.6182436802662,278.6863720667371,-1931.264567829496,-4848.965601245232,16275.861042607145,1739.5551990256206,1330.6762346812732,296.1843835747947,-1676.0875797735123,-4935.603457593523,16279.229494590098,1751.0866414411573,1334.2018827151887,302.56561880704504,-1869.5982233873588,-5040.958561726349,16414.739923009776,1730.4469971700598,1332.759890182798,289.4444176193695,-1963.4980471661538,-5032.712375501261,16292.371809888868,1738.3683478773337,1329.1837956043241,289.5104411131108,-1820.5606189814177,-5089.936185571616,16138.057621565838,1733.714874165577,1331.2058315598522,287.5690200374997,-2017.3880253985249,-5150.932814337655,16476.509597718734,1753.733846028935,1328.1553127877341,288.4457681261466,-1965.3648619622115,-5060.764934000464,16118.801445729998,1761.581004382781,1321.8478601275679,289.80564538194363,-1915.1173526132584,-4932.199582968762,16227.284403068454,1748.075843599993,1339.3007976493193,307.2872360475854,-1819.873477560509,-5022.969838657809,16271.394721599127,1750.703405755852,1341.178851043487,277.47581614470545
-1856.0,-5064.0,16232.0,1680.0,1266.0,271.0,-1712.1423114527938,-5050.961056811269,16263.58228590101,1676.8557901525212,1270.1055221874844,273.6552081866415,-1734.4705144821849,-5097.0391171365845,16199.194202784085,1660.4338458821321,1267.3765495550008,263.70007155492584,-1897.0328647487277,-4993.9717612237,16220.258640115695,1684.9833769186696,1272.222796169201,268.9153832450352,-1817.639013496197,-5041.308025102783,16161.852372224572,1661.4238083308167,1265.839908155489,288.6180400236656,-1838.019811962441,-5104.811934548174,16299.490207168603,1667.883823038831,1281.0180106048915,274.08882628879377,-1858.6705710671029,-5036.939229755877,16062.757530715375,1678.5656517003815,1252.7956424869496,278.7625946621441,-1864.667892999567,-5007.426605065228,16189.291062343395,1682.9239593357422,1243.8473847921564,276.9146183606686,-1944.4021705177486,-5092.063656107615,16229.578455307505,1675.6728961832441,1267.8136608722111,282.04818963605203,-1910.8587851678938,-4991.254478098582,16245.4224837326,1671.4168423648287,1279.449147630627,268.98821490905266,-1865.5049522449954,-5053.0244670868815,16066.981933201881,1676.1419941610795,1257.065579602446,260.6732196567291,-1877.0881885024244,-5031.638453422571,16394.030298846923,1688.192044605244,1280.916207862291,260.95275930245293
-1840.0,-5028.0,16148.0,1840.0,1280.0,273.0,-1875.419120107392,-4935.797797577039,16302.923387002165,1831.168244318594,1285.2859204886463,269.63955126453396,-1700.4184043420018,-5186.030890632063,16236.029469948975,1841.8135950277842,1269.7500803805674,278.9553722027342,-1856.0858357256243,-4807.120015731157,16237.91349991408,1836.3773178894885,1291.3017156049684,260.38137750641806,-2130.752422729125,-5066.456597998635,16193.939596543887,1840.165855369055,1268.2084412078323,270.49454996571234,-1695.2061471236216,-5013.7894206038745,15981.064674684065,1848.240611030081,1297.2913381324274,280.38921516059736,-1721.7401683955973,-5114.928354244951,16056.168116771221,1843.8609403544287,1275.6824704425326,276.73417460349026,-1713.1855537618605,-5046.759716206341,16238.500967791808,1838.0118115896553,1277.81864442374,265.6802859364171,-2071.84980837776,-5177.217400902562,15933.326415027408,1833.1910856899483,1275.4083141995898,265.54537703230034,-1873.1428335936978,-4912.930019011498,16229.384660220205,1837.2158596696322,1297.3569481707896,268.4933628681409,-1703.6352169163874,-5087.6463880693,16121.927434757792,1850.9880935490226,1259.2887361441808,270.9549900199895,-1804.710832161656,-5026.798627240146,16223.223281627457,1837.7679731459461,1280.9413961268885,267.1365617698541
-1872.0,-5056.0,16180.0,1663.0,1262.0,308.0,-1996.236709502699,-5111.682036086107,16237.78984968475,1659.5876198169722,1257.5177732137254,315.5101211832306,-1990.8359061760018,-5055.704299210844,16281.09585886006,1659.5621788908547,1268.9138928276952,338.47418696652744,-1949.018129000853,-5105.2809188627,16042.484440734233,1652.6101379773224,1256.0655149867616,310.49395497448353,-1872.4558135787813,-4965.2454657801,16138.926259115826,1663.5426157573127,1263.569660209343,310.87053824224887,-1777.0077582729255,-5080.057503854009,16032.673004237406,1652.3482711992367,1262.81977984729,290.3128471784738,-1825.5016304169003,-5095.902393338326,16318.3452466254,1655.2439317152791,1265.7206138127092,309.11407893440946,-1961.1572523941106,-4939.900188191697,16235.47581796752,1667.4132011233207,1260.3627850997098,310.5147922131178,-1910.5220166997588,-5112.882453285797,16049.28151888311,1658.7425365618333,1270.1426811086644,307.9854312395341,-2028.7745054237414,-5144.369995008445,16110.77546763682,1674.2365372361025,1269.567970081712,306.1110771576986,-1814.7198361617134,-5200.084912944409,16224.04854468264,1667.311475376662,1278.2838005930328,301.7029353327602,-1868.379255338302,-5103.088717106433,16280.059971612816,1665.8585549571924,1247.9188572072685,321.6203169196725
-1856.0,-5112.0,16244.0,1838.0,1329.0,240.0,-1605.0502468933717,-4827.604623293057,16265.132832204714,1841.168912711478,1322.2080494788377,235.5877824708365,-1872.3073247842794,-5009.279940471172,16230.936139135943,1827.0727337698452,1316.9972446713455,228.60444445100782,-1644.1803734706498,-5069.7282464979935,16308.055386682337,1832.099704404265,1335.4912659607478,237.98504156135897,-1899.0368933856034,-5116.962570629819,16266.648635433692,1851.6891975390354,1327.0175045228725,232.57162414068065,-1886.1372248265443,-4975.495159664391,16163.012278224116,1830.9440123864263,1323.2329859229212,243.05845331066436,-1686.674564911104,-5203.595388897861,16316.466468436854,1819.4564659548143,1328.9129711318785,242.4183026479132,-1677.8519230090985,-5078.06928477651,16138.136060223611,1844.9309840861267,1349.4861908849489,251.15172814200702,-1889.8004407309786,-5056.906210828978,16153.094543986159,1821.9555349810605,1328.0404019180326,234.08852727591653,-1711.2934996879644,-5050.93766141155,16134.239630965443,1833.5068415034377,1339.9132969255343,238.12360541320038,-2067.5925983716475,-5141.990705165437,16394.863716509943,1864.3081543699682,1331.3238512380208,237.9616433882979,-1828.0317367321584,-4887.70420707811,16222.304987220907,1833.8344949525429,1335.9027736122403,227.51219305153842
-1900.0,-5052.0,16196.0,1697.0,1294.0,344.0,-1891.3454203349306,-5036.860729391764,16263.297414737583,1702.8143615461483,1277.4087990426276,352.1477475201613,-1953.2515024882387,-5150.794714981249,16248.2304873549,1722.224404876147,1291.6678933415378,347.75824793941325,-1781.5349099823989,-5206.052535903233,16273.569469590024,1698.7242225296675,1291.0425082827544,341.4927062772024,-1885.877731672638,-4983.937735636042,16161.075150116521,1692.5157167617463,1300.4335481250066,344.6740565219797,-1758.110057238337,-5088.317877296878,16237.991873014149,1689.524472566465,1295.7706458205287,336.1002725177112,-1957.2952303301788,-5087.231861362488,16111.745493232824,1696.7990378500751,1283.547398865136,335.08326639180655,-1952.9249196369672,-5111.604778574699,16267.9615129217,1692.1447847168206,1290.6456318025666,354.76821895639245,-1880.725191687516,-5026.813529654364,16120.438207683765,1694.159295123739,1288.377765295094,341.5913193314584,-1769.745237995809,-5114.270970270099,16466.84702300214,1702.8019409476094,1295.4777677517666,334.5029418097969,-1868.6472823850186,-5109.810166177237,16329.788752339384,1695.7569732930538,1311.767367904327,344.66058788393696,-1940.2245215090018,-5149.644630944589,16123.10462428695,1670.1152319685566,1304.9143281481277,352.95999183117783
-1756.0,-5136.0,16192.0,1748.0,1275.0,313.0,-1708.5491878802704,-5107.537094476296,16069.607859539243,1737.0831926057774,1284.4275723484204,302.372877927744,-1884.3823274061947,-4992.68910951703,16170.598461967924,1750.0320927113687,1287.568067244112,310.9854746113067,-1791.7533336946124,-5162.858216315914,16291.83257730875,1743.7984386281842,1266.1494916385134,302.27193684678076,-1757.1022392013872,-5189.83074445668,16132.82991372974,1755.1941579642667,1279.6723006472466,313.19095792336145,-1765.0220816098986,-5178.580979470416,16130.24455960804,1761.0715226869565,1265.3578563059502,324.63637883128746,-1947.2344311660802,-5183.980652596883,16319.260432938067,1728.2509237944496,1289.5890260297945,302.91823159421733,-1705.6139131429104,-5290.291547893376,16120.231167610153,1749.4171480196424,1264.2597023918036,300.8516084559219,-1801.6960769821956,-5125.526378678748,16291.293833491633,1750.5154763181724,1269.3475944279614,317.60080613634125,-1832.5963316611546,-5033.427857206501,16018.693096440802,1732.1355245971158,1283.477420336732,309.57162428288325,-1771.4192303492273,-5218.295110214253,16220.555384249508,1752.1255783410013,1266.6509485065212,322.02417907722787,-1761.2369929960523,-5076.2263268009165,16073.537637943928,1750.648223119989,1261.7425435207526,294.41257813588527
-1840.0,-5024.0,16148.0,1747.0,1313.0,293.0,-1735.0792469499381,-5093.051318952726,16136.967898160623,1735.007616930665,1310.1898978912318,287.0788475846766,-1999.1952980572773,-5159.413195274586,16112.610406396412,1746.7229245904148,1308.215199912053,291.3377564450021,-1777.9957424806091,-5024.226123342733,16072.085829498417,1751.2786881946513,1323.406789104109,304.4394620116556,-1848.554556149344,-5116.725169037537,16190.442411435524,1745.6518589984432,1305.280443605052,290.65902357560367,-1868.0659411207728,-5096.082996451539,16216.030157121771,1750.4975897012555,1306.8994174696247,303.1082756578336,-1832.3660736511251,-5056.484077612459,16093.228563934352,1757.352355392601,1301.2708432861373,286.3350802064765,-1821.423899455235,-5218.635698122669,16091.937438853385,1725.8540094879963,1307.2583198822856,276.94066836297355,-1795.3730852919834,-5082.705331606762,16119.149299298868,1760.6999689022105,1313.4791930346535,301.19300801134597,-1834.9215032828226,-4839.842654854277,16007.823245837168,1751.6137825184462,1300.0343600673034,312.8415055067118,-1793.063099229138,-5083.8119751286395,16006.183331256869,1744.098316408776,1330.0735624583672,292.1693605674798,-1754.4675676142342,-5064.170770702449,16258.688313057944,1752.7902712862822,1320.9576593909128,281.1828473253388
-1752.0,-5112.0,16104.0,1756.0,1331.0,273.0,-1917.4373584184143,-5080.392680423001,16060.06351948364,1757.241311373107,1339.0510330740972,266.4092220345155,-1802.6482011565415,-5109.891465695545,16283.821267645591,1751.5480526182498,1322.5766993237155,273.7584011664102,-1679.4092141607016,-5040.259846520228,16134.29653812445,1740.1298158799952,1336.3161835899946,279.6153543702758,-1719.1201824338457,-4977.22532702513,16124.266720006146,1760.4837153286242,1326.9810186256811,271.999361975943,-1701.6829809535786,-5059.970292108825,16156.759725210839,1765.082342209222,1342.7466328237579,299.3108717035554,-1624.4364277910995,-5057.794742947611,16004.062761291067,1743.4030056055476,1332.2724254800191,286.32940297593314,-1730.629814662997,-4987.710931605851,16195.258567581543,1757.5237187394284,1306.8132504429075,285.1828044152944,-1882.8840439858723,-5115.507781290444,15894.250592019736,1758.8046345480604,1333.2588201157037,270.64843431998753,-1768.4330037262334,-5094.086794707647,16215.120626638442,1753.2938513938816,1328.4756296362234,292.8999160345695,-1818.0407026657845,-5284.481626033484,15986.519364522928,1758.9865733688118,1333.7699692335668,273.22182904057735,-1625.3276074530067,-4984.0663745974,15991.095976464585,1752.542325521764,1320.5470113589417,266.5093314907479
-1800.0,-5040.0,16256.0,1760.0,1288.0,273.0,-1825.882698391412,-5119.9884687011445,16327.820997238017,1747.7295598868943,1296.7282346536754,262.02380515498936,-1780.2521378766762,-5014.601243699943,16284.54136184725,1734.7543632850386,1295.6246636450164,271.4373356246473,-1922.3252125318052,-4821.534441238095,16197.754686485901,1759.1780762446879,1284.7665400101753,256.9237351370276,-1951.7165493040134,-5220.454870805772,16235.181216490462,1761.7306476356462,1279.1083643297807,272.32029655235874,-1956.1520689504644,-5064.398390566376,16310.283090865612,1755.6977302553025,1284.9816133331362,257.22828855820603,-1813.633172819086,-5005.599999938704,16333.780730392522,1768.6569398519716,1303.0670178101523,283.24309293835455,-1737.0604708501626,-4881.821913127599,16328.425135375717,1758.115135284906,1266.9166734728142,249.99412810083032,-1747.9228614142746,-4915.700552341181,16293.070198760159,1758.1469405912242,1277.4734047905017,272.81923343746706,-1825.9044808212052,-5053.934980300409,16290.77919228684,1768.2761292330451,1296.299305913237,263.1921581493028,-1825.9744521530706,-5150.26152793259,16264.425702448822,1751.1596986805137,1286.9669329378091,284.41536626013146,-1734.5674448083234,-5232.622154620246,16308.067659714647,1757.0467089609174,1290.251995694821,276.42144020291244
-1792.0,-5028.0,16228.0,1674.0,1287.0,292.0,-1635.769270323884,-5021.653196122935,16069.91156352357,1681.2676282000511,1291.0508551345374,310.336289390598,-1707.2778915200283,-5070.119777785354,16250.634120555345,1671.2532833202617,1285.4089237868284,282.21845024686013,-1905.0693191943842,-5088.34281877632,16284.221070232965,1661.2745566098454,1296.3277936154384,291.90282683347885,-1900.462334433605,-5144.215778682355,16280.448072263698,1671.2841266508456,1294.1899578837063,268.25488321998256,-1688.2068154746821,-4971.252986558862,16027.291199691286,1670.468957743364,1287.0908449083831,284.7712992373718,-1783.6744673354694,-5180.612624642563,16214.53465885923,1682.019044672953,1283.8146276266314,292.26574170307555,-1725.661278465353,-5110.146687828175,16403.490178385506,1677.300301702301,1296.2911401915012,272.3043974576596,-1820.3869406772192,-5026.3589644917065,16219.105926392444,1672.8134957897248,1299.0857727954885,283.1142220440101,-1697.4808993673978,-5069.799463570635,16191.102744312402,1669.5625423763877,1293.6407558007097,307.2214866896189,-1646.598588208471,-4842.500279898419,16345.205203368914,1682.2427582346302,1303.9344580992686,278.98812664072926,-1700.4162402503496,-5066.518530525401,16285.409028766142,1667.6674947211318,1288.5826643748244,273.6876939643577
-1904.0,-5048.0,16260.0,1778.0,1304.0,284.0,-1773.239740596328,-4796.395752146972,16253.60959285421,1777.3402329661697,1303.6879888904593,277.70340776377,-1973.1599528369015,-5033.2298894360165,16398.437661466007,1788.3734646636583,1299.1507255392798,281.68540785697553,-1823.1208704450444,-5073.802439360834,16148.795582506693,1775.6949116742562,1316.2292269857664,275.3598713779239,-1822.8637352495161,-5132.572429227968,16115.920684776156,1778.9869361530318,1320.1568052182813,283.1242495215764,-1704.914463664827,-4956.194689554922,16193.220627546492,1781.3170788602758,1306.6047716145215,300.6673328924332,-1823.53584730063,-5009.922288128998,16211.086887717567,1787.1365705379462,1304.89116342715,281.0107697062091,-2025.4583731457521,-5149.292563517273,16226.085897591347,1778.303142718662,1311.2265011054355,275.1668270918395,-2008.1621487364491,-5112.204813195831,16030.72059264421,1794.5831186544558,1312.3411089825902,309.4014553303711,-1974.1068497066792,-5184.092293426849,16312.749130457518,1777.462224719717,1314.870889862547,276.70789152913227,-1823.4474562564305,-5241.111005488197,16219.007377251259,1777.5297585054946,1306.447170646645,304.00414351969533,-1994.7177724067865,-4934.233355583969,16326.922964856572,1769.993948237747,1305.7418465524013,281.23393830785176
-1772.0,-5028.0,16216.0,1723.0,1277.0,295.0,-1740.8016282517547,-5034.599102180791,16301.472419665244,1725.7805364187188,1287.2058455840333,294.80946225951413,-1782.7481801694403,-5030.733920653683,16285.347619012071,1718.4008659126819,1260.515508755938,291.3769948325785,-1693.3528618473672,-4987.715676550668,16141.08672792198,1715.6540301161763,1277.8104146565267,302.3493578046703,-1759.8234568242822,-4910.10519596335,16329.715421807794,1721.6332931888041,1274.718829552737,292.6531963472104,-1823.2716302726787,-4902.7331429220685,16109.904420517627,1721.2034648502154,1283.5684650492121,290.68299064393614,-1693.8637151038624,-5165.404132430182,16075.858911810297,1733.543815055232,1286.8488580993208,299.0565306944976,-1548.752215074968,-4938.734236318112,16270.946152493207,1738.5936832650962,1281.4251991058784,298.9201506205189,-1745.8418312808892,-5043.754660594063,16126.189434399339,1708.926983928257,1288.3956131712255,296.6813798550824,-1751.8250826906253,-5132.866405280506,16184.367418518761,1700.4124385704881,1264.4214435107654,298.2609073462265,-1595.9618340875459,-4831.14315650254,16210.847427727625,1710.0054580676162,1275.643393194086,304.44628023980624,-1856.315846779639,-5124.45251932073,16212.067938231372,1713.4373934536547,1276.9767843158243,290.1293315994012
-1780.0,-5116.0,16204.0,1735.0,1322.0,305.0,-1725.71451297276,-5070.846108057479,16116.652239357,1724.2760678703887,1315.536395112243,315.3414748723308,-1688.5406083000457,-4982.714078531773,16215.94527986033,1736.4422822611084,1321.375701386581,307.26400558929925,-1727.54236449998,-5043.05733548318,16056.296850432813,1743.0412477152588,1322.528562498284,311.92566804807086,-1701.9549671237164,-5192.363226552544,16167.524197954079,1742.802551759266,1350.949590266762,298.24794727114926,-1790.0452519476485,-5228.04065194339,16118.572745243933,1744.3377772283063,1309.6520919167733,312.8119171052359,-1612.196761976129,-5117.93457229438,16225.39386165075,1741.8532827304962,1343.7425858722902,296.8337080318283,-1777.9773870865176,-5002.928519904522,16116.856243264185,1716.4861198855424,1325.5039399012423,292.9819537928926,-1966.3612841875463,-5235.991635978359,16356.321213409401,1719.6112426683762,1300.5416196884653,295.31936454492126,-2014.5390013336626,-5044.804752915424,16332.695415253951,1729.0599287908415,1325.3430278073008,306.8249470878197,-1784.8445654055454,-5171.852183603953,16278.535419663494,1740.420637696189,1329.4631672104933,314.28765566809136,-1726.7324772017153,-5111.483115788896,16179.438899784613,1726.0864243010417,1317.0030327951508,328.9297853493309
-1848.0,-5124.0,16316.0,1778.0,1299.0,304.0,-1802.4008479830557,-5015.213951655015,16266.791824388492,1779.3954702433537,1289.2025337513023,301.41823619022773,-1952.2740402615013,-5128.426117772739,16367.16001110254,1779.544632522555,1309.9970635807183,293.0658889988753,-1766.759353494991,-5298.910879433982,16254.167681761066,1772.730065292967,1290.416614012458,332.84577111629665,-1883.286840446624,-5248.2868485587605,16354.572074517908,1781.4538772783028,1283.4018370458612,291.10134494766106,-1717.1379028146753,-4943.307314061289,16333.295944999963,1779.6595215887726,1289.0814683607155,304.30446131737483,-1827.1823767128528,-5093.417464947206,16381.312197172952,1779.876573080205,1306.884833445556,315.03765264329735,-1851.9050394449832,-5083.514648121505,16235.821821037416,1787.8792725427484,1299.9512496476266,293.49650711093534,-1672.002739314475,-5035.395723607856,16405.121466696663,1772.870203578129,1300.8851128962242,298.3748929452113,-1863.0842497950218,-5194.485973738915,16374.522153289061,1791.8688165357876,1302.8115678762024,306.5978754045913,-1616.2883768480492,-5181.351693281572,16221.99790450216,1781.095684381188,1319.9397907202194,289.0073319664597,-1903.2653483977438,-5095.077926471824,16337.282214561808,1763.534354298935,1290.3251616533119,292.82935447922796
-1800.0,-5104.0,16216.0,1695.0,1299.0,284.0,-1673.8223758930872,-5043.7346311234105,16146.788924698962,1687.4699427119817,1301.1157881505117,272.42095376464374,-1855.7432948637495,-5074.507153261129,16120.230223789607,1703.1212954123775,1310.8078245526574,280.5217555513788,-1794.6402468228487,-5072.656266937838,16220.553776021572,1688.6148687424566,1303.6416487543727,297.5601711991545,-1918.7052096082045,-5250.960553525565,16247.080788755198,1708.9604822857955,1307.3241261883463,283.53485820905416,-1861.9406395953436,-5020.9000004076925,16198.375562301968,1700.8432023725607,1305.0417473236012,267.26969505168336,-1697.9763437058439,-5100.174252560167,16111.820630839517,1696.9299228337095,1294.22268421196,300.6642953124075,-1732.1873280671598,-5051.196707883563,16357.925415885762,1672.564724656331,1302.8107137687666,278.5988930058691,-1878.768114147344,-5203.229449125267,16234.786011185119,1694.676927985291,1306.120455645953,298.0063962180519,-1629.3167744115044,-5073.103956464162,16241.369486386822,1676.0591428088878,1321.3154535985884,269.3955187510891,-1745.9463229093046,-5188.247723646205,16224.31982984499,1692.6934076807136,1292.5460468067074,282.7028044780624,-1766.1552118924353,-4987.184551212601,16172.65145148757,1697.8430220285393,1281.4421317349652,273.876102739461
-1792.0,-5064.0,16236.0,1808.0,1297.0,319.0,-1717.263406759909,-5001.559326599064,16257.777533087508,1811.6501352947666,1291.7563529163006,321.54230829019866,-1815.4911165615833,-5177.222851416036,16205.816406337408,1793.6607923504894,1287.1776074806678,313.84345027505736,-1795.1524093238163,-5075.554662435198,16123.66978393361,1806.164229981798,1305.8451616996747,302.0106177260515,-1656.4798568095355,-5161.029729361292,16030.634498491774,1794.0738308025286,1319.9282171214077,321.13581121429746,-1798.1441996926696,-4915.6171271637995,16071.205465202003,1805.9268536732359,1310.4771622753412,318.1318467418992,-1801.2547678253386,-5010.041578786188,16264.95390375703,1804.58540020016,1288.8571178339628,315.6862371492523,-1961.915006057142,-5071.0656746679915,16152.840362314708,1809.3897640626415,1313.1164759584224,322.8128437728338,-1788.3660930998512,-5118.062800203891,16286.97757412504,1818.7646007436786,1312.1005125480879,323.95146098861187,-1854.8042262713234,-4889.57758269041,16261.918424712512,1809.4388533011825,1302.6525383362914,326.4450357042993,-1805.1914277392882,-5189.557346968325,16221.411932814928,1804.8559720369947,1295.0826564289146,319.9447772513315,-1968.7822981563356,-4884.324507477403,16144.585633654895,1791.4952844282625,1295.3858223437321,308.9825451791361
-1816.0,-5036.0,16236.0,1723.0,1303.0,329.0,-2016.9651167423249,-5138.071849041473,16147.952519446075,1720.2302957080615,1308.2945152913987,319.6654973733723,-1847.94820994879,-4937.561436456536,16098.281559105082,1729.7131027863884,1302.4615631158329,328.55375933878406,-1943.5850762559057,-5083.270804974288,16152.007154629087,1718.7469162013358,1314.1950533703482,330.7634236291184,-1855.1904976252938,-4974.302642308365,16307.776073572051,1718.8835500844725,1300.2533227308554,325.1342683739904,-1756.247105678663,-5050.406304965944,16339.547663740888,1714.2362043353846,1287.8587113540138,332.8041283057131,-1892.8838431038832,-5038.362352615865,16378.941409813324,1729.1225585720947,1313.7845219337878,323.2262412276084,-1788.1451440768044,-4860.649582643372,16518.76085902315,1739.482859459277,1293.0677328906954,322.1032878429126,-1902.4835078637761,-5239.774935123889,16173.008200979206,1709.3378969799287,1332.049119057823,331.8659950903478,-1953.1484455042903,-5119.018448772692,16273.82603229352,1722.6018227878208,1311.6911857565397,295.1777095071983,-1836.2001004238684,-5168.356529907707,15972.771536866976,1727.3237948248407,1305.6413324504206,332.18624518003736,-1888.4796861805394,-4991.00509144262,16241.80554002733,1697.5078495072714,1308.2820776323265,319.08085389907285
-1780.0,-5088.0,16244.0,1758.0,1288.0,296.0,-1841.4012339787366,-5363.778523071768,16103.656354592767,1756.8844478093213,1264.3410112825304,289.67654930855815,-1648.0283171348538,-5102.275498497628,16332.766766583005,1762.774088353567,1292.7989505993166,281.37688060007747,-1839.7520837219242,-5114.143866526907,16257.864808024791,1752.7216404460505,1276.9687511133081,285.34115985113027,-1869.2294243147064,-4772.408860519286,16064.503159260428,1764.9047087517583,1266.760134142409,294.12196160619936,-1835.072665671677,-5175.097441389205,16351.325238568588,1761.548825395815,1285.6575577693652,297.7973169432626,-1700.137733050222,-5148.143195197655,16140.51955789173,1752.313902753535,1277.634364857575,294.605773021682,-1806.4143050128018,-5157.831939835115,16336.130523054022,1755.5002487092372,1294.2711087291702,318.1000180098151,-1898.1423216915798,-5149.596011852097,16190.684306997215,1763.6290468744369,1280.9858690510628,294.0946179715667,-2002.5735762058239,-5199.414774896681,16139.774090765946,1752.900499597443,1301.349764249199,312.2082937454046,-1748.7631958474747,-5153.444866978752,16384.580730041645,1758.8164133906869,1301.0091477322135,304.41574091027627,-1738.9950206155825,-5283.79894856813,16093.672961736222,1751.7492446352057,1290.3573021376935,305.26680031493373
-1736.0,-5100.0,16120.0,1755.0,1321.0,271.0,-1762.2767448521863,-5076.208630120024,16164.035813566654,1761.935659520814,1321.5363786014495,267.33638999664834,-1602.9446920985588,-5099.052933158698,16172.297962245502,1736.1478394764576,1316.8776996605136,255.8578249759685,-1773.9263295643223,-5074.404269776531,16318.543783258607,1749.046186331445,1323.5333748613336,267.9548728585367,-1738.7906838419892,-5102.2178034505705,16061.006591768339,1743.3373067211965,1314.0928505282452,245.27658483783492,-1772.4466875128787,-4922.975641473421,16096.891644904335,1753.190303532546,1318.11919265103,275.90854713220347,-1708.1332238687355,-5051.823264567985,16197.158383085756,1776.2599929482706,1334.0882977453268,266.8291272544639,-1794.8164632793691,-5063.241791766814,16030.06352627155,1743.5245502772882,1337.172835759442,280.79311079922815,-1669.8834200321282,-5051.02651897362,16251.640190665963,1761.4281598908435,1328.488103013811,257.26616400456777,-1624.9003648958985,-5097.328591567466,15978.009472217876,1763.8850759308364,1320.2258881969738,288.0940635684026,-1688.2736424488437,-5176.850907540994,16059.454355630285,1756.0710270246298,1313.5902686279348,275.74202788102417,-1833.3037553818274,-5086.550406032858,16090.036755014558,1741.8471193765647,1327.048353233147,273.98072030707664
-1840.0,-5112.0,16196.0,1675.0,1273.0,326.0,-1830.8539055143501,-5177.129708144885,16190.082005554825,1677.8148249065775,1283.8921471717942,337.28835376229813,-1959.221193993815,-5051.708073456184,16103.612297564994,1691.1629655256972,1283.9322195184686,317.3372352411333,-1831.3739675544307,-5040.244003181507,16059.841043948225,1690.8651167888386,1275.2504829866696,324.8294285962532,-1879.164596351379,-5106.363771376275,16196.140968993881,1691.40107121691,1277.2910248459916,315.05280426585955,-1926.1205409066363,-5231.342707114604,16164.406545724709,1682.2737390175919,1277.8486672994095,317.3132536317137,-1927.7156126962734,-5065.404593264071,16112.420733246468,1681.486692696689,1268.0954394009486,345.43141244205077,-1723.3742980533636,-5260.698603973073,16414.155183830255,1683.005442353561,1275.3882161581475,337.1989411977509,-1705.0889837891323,-5031.119853392639,16188.010987798583,1670.9309694770084,1271.255557154051,326.78642316701655,-1778.6413238090106,-5229.700158681369,16264.402395741161,1661.2052338398926,1267.219347465921,343.27038752630045,-2112.8383107288014,-5123.730873846664,16271.72216537961,1678.7587635088992,1274.2167225403753,329.90604782678025,-1872.0434315982811,-5086.602172958539,16262.429407762007,1679.3097506831011,1281.6892025420927,309.29423588381985
-1796.0,-5072.0,16200.0,1773.0,1311.0,296.0,-1678.6059799857553,-5201.82241388426,16208.498892341451,1764.6954225935413,1295.0221389210813,286.7619969367988,-1709.2765271768114,-5166.701591991477,16162.524924004067,1782.9526232681997,1295.9163111965804,293.4398843785754,-1741.0880221852442,-5077.330230384465,16366.803393491653,1793.0777209740515,1315.1086545189705,287.3711139985369,-1816.7801470047812,-4882.699370002264,16349.238036210078,1779.7011905783056,1301.1979928500696,306.79197320487833,-1837.2093479569498,-5206.852809511632,16121.971391733563,1760.7706021754723,1312.3561467763818,302.90443584563684,-1907.552183994918,-5107.304844495861,16189.2423074151,1781.378363234281,1316.9876755974606,300.8572497077132,-1852.0131621769249,-4802.912039123877,16230.876111706313,1770.7517927627484,1323.465210793815,303.62819289395605,-1772.6567897122525,-5188.056597365388,16181.106526947988,1762.1135736725792,1298.00019434573,295.70735107732037,-1681.5732172488135,-4973.070364165586,16142.753958456666,1764.6801060357097,1312.5075648091313,295.7113692556285,-1827.1008386864073,-5048.044292958518,16178.302076499649,1769.0318041806079,1302.4002609415668,279.70516778698,-1897.7005597728046,-4938.456960568952,16304.810221056252,1771.3962233537254,1313.7791057006555,299.9636083687352
-1828.0,-5048.0,16124.0,1738.0,1295.0,296.0,-1997.7063190313943,-4918.341629185463,16262.97793397975,1723.2734280268,1292.5880798676503,305.3955811559611,-1879.2179020059277,-5134.063719985829,16125.354348831173,1722.0075841255875,1294.2236734030496,287.6866286029487,-2024.8728390640283,-5070.558961323709,16250.39681979937,1730.9808871323019,1301.057058487139,307.3297581764713,-1827.7086790324731,-5021.0714300276495,16245.199957596786,1723.7531479567667,1307.5485270630068,302.43672607870207,-1878.9329463202641,-4868.568664465028,16026.220481985985,1731.3062706079556,1308.3294723470513,296.797276486711,-1772.8932996062267,-5152.102993508395,16064.45373940143,1717.6307444748984,1278.5411889211073,292.0887232656927,-1796.0980234853323,-5083.694883683139,16094.00087497314,1736.508817244665,1289.759716174144,305.93808359795077,-1847.0707485354162,-5274.233220252214,16021.767305080233,1746.626499100097,1287.7410836628662,300.793100572868,-1979.5722703437855,-5293.20315587452,16204.09240255425,1733.0702374819748,1314.155071155383,289.97886347756645,-1897.5468331884092,-5273.851152719656,16204.63472299667,1751.1639745962968,1310.0924473754162,287.12559820537604,-1942.8327986717059,-5070.797646699869,16041.445726711569,1731.3572015545067,1290.8997617255634,307.5009076984245
-1768.0,-5136.0,16136.0,1719.0,1312.0,303.0,-1781.24314640325,-5211.539469633684,15967.036153971922,1714.864589473975,1321.9944292860512,307.92252814667444,-1780.185914864656,-5230.557410862218,16149.130932350019,1731.6926054350815,1324.5716313719167,292.3454033231977,-1856.2202356646048,-5238.439837047957,16096.184028186712,1714.7596808745259,1311.2953277228842,307.81625088413796,-1524.6004350204028,-5236.018953979828,16167.981247272648,1726.0938504449177,1304.9112947292597,307.7567294511548,-1783.2470775564072,-5272.112170349941,15953.523649019313,1701.692487040935,1324.8890364249958,306.7488578101836,-1668.506285127586,-4989.074288137885,16035.678374080218,1720.255809182937,1294.8783469096918,308.0993695884931,-1828.8560138878645,-5026.749830170008,16091.093879908432,1708.9420530631053,1314.7471559078679,321.1508311725022,-1770.6578003622444,-5182.522577034746,15998.114778588273,1710.6523027850217,1305.084891782734,304.1353561073797,-1948.0331595191224,-5028.725745274593,16115.139374748052,1706.8951174196136,1310.6736626632564,306.9628235035017,-1899.142181045315,-5201.88392578131,15942.086612960597,1708.0167908565797,1324.2134827632644,300.7427835564685,-1637.496276356047,-5028.352525098311,16165.687499076734,1706.6534181450697,1308.3880731726215,297.576483091289
-1728.0,-4996.0,16148.0,1729.0,1270.0,316.0,-1753.1919707558704,-4915.9493890299955,16111.749194835485,1734.384945207808,1261.6262684287283,314.6077165126028,-1767.9220708814914,-5134.731059327708,16389.604826743227,1719.3965325691597,1266.2660760332587,316.7734891196732,-1688.3615214168278,-4902.416982772703,16214.444803218319,1732.1298182181747,1260.206159403095,321.8763534916082,-1653.0790346176072,-4864.849676026006,16190.773392165242,1723.4903239881733,1279.3502476273034,336.12106663363755,-1813.7421134238812,-4865.747237525833,16089.311803751049,1728.7849463469065,1277.4672393118833,306.44031461586593,-1729.2122170001987,-5041.312382602177,16062.972424053754,1726.852221396113,1288.9076706079354,320.2920277449023,-1690.5677414577954,-4914.433658138836,16161.50820609013,1721.0354964965397,1267.6622925968761,315.268798445612,-1854.5706462132823,-4895.876660237394,16068.58232383693,1735.9506525519644,1270.1306805335773,321.59047499924964,-1666.2847223992626,-4828.905748959867,16337.1895304474,1738.4295284043997,1278.4257204227047,305.6274241532394,-1834.2900817087047,-5015.06909120626,16154.650064411268,1746.0578387378466,1288.9245183877144,320.75650270618786,-1791.0525580870915,-4991.692539481181,16098.194300652765,1718.2444866090418,1279.9719533789323,318.3939464804729
-1780.0,-5060.0,16240.0,1728.0,1302.0,307.0,-1779.3300761828543,-4969.814605350757,16235.291279655094,1738.9095548249986,1307.4525850557452,300.7477850859734,-1835.6795503399235,-5071.102939460538,16243.698556431853,1725.0594417735997,1292.85275301834,308.15738040906444,-1817.351143730511,-5062.184178325369,16293.191298040243,1726.0103167391449,1296.0653675448518,297.7068734650777,-1860.8710683156166,-5227.010788542089,16287.052632275618,1722.5432823112487,1293.694202067348,297.5734803201726,-1464.3614955944763,-5121.885650670128,16347.896582330664,1742.2663613152808,1299.6175781475904,295.0559651245316,-1772.8453828496552,-4936.3998209455785,16165.272525518167,1716.9224701182025,1308.2421029108564,320.0415934480132,-1764.7592642203533,-5253.485239879112,16216.819426640152,1724.8848033438267,1296.079811383305,313.87370795985123,-1640.3125113575447,-5134.828290340832,16298.625451145823,1734.7853974487355,1287.9385748931284,293.7533353702785,-1717.958694447205,-4952.833178462292,16287.992805982843,1718.2243560749564,1293.2455247488215,316.2636964838998,-1692.0194533497947,-4994.336411214691,16071.161927681394,1720.1730726289738,1302.1211435297628,296.8803665752621,-1865.2170949252957,-4997.778077369631,16194.533494236684,1737.9891079300348,1285.637917214181,294.62471679086235
-1884.0,-5092.0,16220.0,1788.0,1300.0,298.0,-1961.1812745173165,-5171.84293953841,16173.996268986986,1787.2446604079958,1302.9147289652851,292.77064002064543,-1943.1353745049505,-5025.845587919598,16262.646252480816,1782.7865114133417,1307.7932593737899,285.27362109323803,-1928.092762348513,-5098.064756572092,16277.783206216101,1802.2488502176375,1302.9938972687617,293.23643443264774,-1808.7213723931263,-5276.60393718274,16281.67096089665,1782.245051551208,1313.9938792975431,276.3083056956606,-1983.8219924911812,-4894.642508895181,16114.07366124594,1795.113319618406,1278.8587171253137,314.26579886360514,-1992.1484205455836,-5018.320125748323,16296.81740448471,1792.2225511840206,1286.652090183306,305.6846394130748,-1870.049797244839,-4913.254358430892,16222.743754562493,1768.9704720618256,1302.9578498574958,286.1462613968911,-1731.8615020698066,-5011.85533576221,16146.039004913093,1808.115881180489,1302.8265163039184,309.59567779236613,-1988.2862135267067,-5069.856589032255,16163.450672087689,1786.5205290361987,1287.1976966323325,284.3986669299725,-1895.693588229452,-5047.708275502498,16217.886007957011,1787.8394151445902,1311.9695579814759,306.4334269779695,-1749.9335937210053,-5125.125617410171,16245.270109762636,1784.1972851243365,1305.684094564043,308.92399212667016
-1788.0,-5072.0,16144.0,1734.0,1317.0,309.0,-1840.9670325670577,-5080.753583017545,15952.44189258001,1728.8578793661784,1332.246082418647,310.2604109679598,-1866.5514618658901,-5060.602410916298,16035.344087048306,1718.6957933942658,1312.2462827167726,294.57324992063724,-1909.2397549121135,-5031.858919739351,16090.800620921198,1746.3189790461267,1317.066972466608,316.10026856065826,-1798.3504594021076,-5076.521996356069,16024.92658947288,1737.590386185599,1318.585684196921,316.10098089033244,-1911.8320151353757,-5116.467703841925,16097.873837831145,1767.0005231758366,1328.3835799831425,326.9230361719676,-1794.8287864868269,-5249.7275813858705,15982.744040588617,1729.9573437148815,1311.9926672904344,306.2283159853061,-1793.0806357376612,-5157.395920363805,16067.352387068384,1700.7241617002546,1323.5365458422777,308.1435871192164,-1864.4800833357017,-5193.20056566635,16216.295107586117,1732.554979454297,1321.216878058877,308.9247657597326,-1912.504573177722,-5019.725096301342,16215.83541712998,1735.6734986138517,1314.6534074550668,320.297895506427,-1873.5725477244894,-5067.494838212546,16163.118903181747,1750.1317827340179,1306.34953207515,305.79367156181394,-1976.4557018449732,-4915.875647086495,16162.590459229226,1711.6268934465877,1310.943870290315,287.54080183549297
-1784.0,-5080.0,16256.0,1728.0,1310.0,336.0,-1719.1735783108115,-5123.517637066044,16137.878499317803,1719.1316179947776,1291.024462447377,336.98231056068704,-1739.2899577140217,-5086.024414838061,16397.556964856507,1745.9039971932204,1316.7652774480466,347.08216950177143,-1843.6165640774198,-4973.9148313292735,16177.703274534353,1732.7841211924906,1314.4420475564514,326.1350876253288,-1758.7245550964249,-5168.994311453935,16336.285373483623,1724.2023558867475,1308.6096700462085,321.13095180066944,-1620.2323715088303,-5051.775772996865,16244.688971978509,1715.945625911057,1302.8441717284225,333.40698739415933,-1753.0389144979017,-4910.222060664467,16216.670008091105,1731.0157320219223,1318.1520952086303,344.2525737594611,-1779.30982156076,-5036.190020349016,16199.641476686826,1731.2066102677118,1317.9161500361386,339.6407410585559,-1747.8722470166597,-5175.207888457078,16279.109310394475,1743.8511698415266,1307.2663830776326,331.954124501426,-1863.390593227906,-5229.365995898772,16218.699225359154,1735.5344792499523,1296.480313418983,329.81235842515366,-1743.7481465427397,-5094.746040523495,16017.776094665396,1727.9033121107022,1303.251356274301,335.49079353754695,-1741.0732452319385,-5146.383868031116,16381.922977609345,1727.249137790941,1309.2836140558654,354.36634351425573
-1772.0,-5056.0,16180.0,1744.0,1312.0,315.0,-1891.159285775845,-5110.191047026108,16159.74961353709,1741.5703016264729,1314.9798435832718,292.1276098660842,-1763.8416480765104,-5060.246146628598,16111.304704949516,1731.7448789878488,1317.9858552753556,323.43995132784886,-1769.7827052801072,-5161.984527920221,16330.287371288325,1733.5383047476394,1307.9209961594477,314.8307738000185,-1719.8310081323652,-4970.8713223426585,16033.118228637586,1734.4315539809988,1307.6766997653933,296.76089011367014,-1752.6034615284648,-5123.314324443607,16152.167865141157,1744.3448815775641,1317.1162506288465,315.8180089229529,-1928.534170023157,-5048.08320944922,16128.240572294606,1752.6968168412734,1319.9484454353117,320.92955966964763,-1773.734543865214,-5060.115151146552,16175.839340463104,1738.2349598948736,1325.8294265928023,320.80371212110146,-1925.1345251978062,-4940.0678802960965,16263.498007056181,1745.5529772177706,1313.8497828170507,319.84251243757353,-1737.715951015535,-5014.365842324029,16241.802755370525,1748.0383495198098,1327.070141803297,319.9806680923788,-1668.9915836758178,-5202.886302289087,16094.273565647914,1728.9572048139933,1303.24149000833,310.9105157199906,-1890.057665076808,-4983.979057083163,16163.994968425668,1745.1298893077155,1305.905952154057,319.9592872357137
-1872.0,-4988.0,16224.0,1723.0,1279.0,265.0,-1978.4394543137914,-4813.85649635671,16249.424085310557,1730.9584728366785,1282.5109946000728,253.13986991510467,-1976.1383122758914,-4813.287516569629,16263.415488829392,1706.3727077622004,1276.7417763531816,260.79983680556967,-1777.757140848761,-5052.534074309273,16358.279764332516,1712.0381368491205,1280.5115912901942,269.09679455868053,-1856.7990013094302,-4990.768669820153,16290.840635671862,1719.592360253412,1277.3720570933126,264.81016327314677,-1983.6409564907203,-5116.799875432039,16132.805419554557,1732.312582764238,1272.3873705459428,275.5599265494595,-1939.710712825231,-4866.889899443649,16290.576141010679,1723.7574679933944,1267.8776433615662,277.71667516274425,-1870.7825570548666,-4964.509755468721,16277.60103667302,1741.8596021722776,1296.0549199050452,268.2146263944302,-1712.4426423365614,-5025.437839307194,16205.94673978956,1717.3778694765388,1272.8388444080895,255.16177144551108,-1789.0865749244686,-5065.397636312871,16175.503850782223,1731.2321872381904,1274.5792728125034,257.33844908327643,-1861.281929580715,-4960.073922877917,16364.788744889616,1720.984340844338,1295.0236491156616,275.97238132658396,-1873.1206578245376,-5073.163845593556,16219.899413292978,1729.9284134709942,1282.9993786578357,256.4471444876735
-1860.0,-5076.0,16052.0,1745.0,1285.0,272.0,-1704.121962175163,-5127.2256063062805,16204.975463002958,1743.4865712561034,1283.7308205441764,276.701517315159,-1817.6979512643036,-5147.010538656705,16344.136985596004,1755.9295192062552,1286.0990563742982,260.45338023480696,-2026.8829971550517,-5040.86996171224,16019.871210470372,1730.6892794710536,1279.1908077501187,278.4188668429673,-1799.0520174338792,-5154.133291912129,15831.657286680167,1737.6180830939727,1281.7108325965653,266.4442310052927,-1753.2321479308803,-5195.276073791111,16101.295659585032,1740.5874169305296,1294.091892275807,265.8474619788737,-1856.7473659869743,-5053.106564933323,16077.223655332251,1752.1944219188845,1290.1117862548629,274.5141878540183,-1840.8265846743307,-4997.817582221358,16107.361997273038,1732.048761522338,1280.7071606497702,266.0451152923035,-1929.1745630562464,-5021.706543774481,16194.037642964864,1745.0474481377187,1309.469908030087,290.88395382373,-1776.694560362172,-5057.048292058348,16151.414063708202,1735.99974899866,1274.0908914842,266.11834627621204,-1941.0518496132806,-5186.5784734730505,16032.230478566316,1742.927536764361,1293.8561572416127,272.478207816378,-1928.4300511876386,-5131.573600123322,16044.650167643771,1743.3695176621932,1290.154050729821,267.719121954048
-1828.0,-5092.0,16144.0,1752.0,1301.0,295.0,-1678.5018143091784,-5036.5057933907665,16169.59855683697,1745.4120776003306,1306.3029881552336,292.11345942789865,-1813.4332519415095,-5068.415160504795,16136.784860689439,1757.1357810095287,1282.2558909888598,295.5210120844223,-1799.2735459158234,-5130.907064021361,16178.127040596426,1753.3232383015525,1307.3284269300436,299.2137581059629,-1820.0580210660971,-5218.178022822471,16147.85310241395,1748.0567998148802,1297.0595065638793,306.9553368534475,-1806.1454959840912,-5039.656260669861,16118.659239606619,1743.9369532814883,1305.7902137550404,315.07087829900894,-1976.7575126463867,-5051.5809712039445,16053.545784650567,1741.48488880153,1311.5450972147216,310.84080440950504,-1864.3189272820077,-5092.18082543398,16144.241629886556,1755.472270561522,1284.9805296470897,279.84297605701516,-1918.7459274182231,-4949.919046112202,16157.537733135247,1755.3885470421726,1287.4329820227924,303.1418139195932,-1760.18171704479,-5184.661595226579,16247.479033681984,1751.9640533020897,1289.8965259637407,295.2423268007115,-1756.7681981811131,-4925.585507785464,16116.833015412347,1737.8664928070064,1302.2716169665225,315.43065215581663,-1848.1063104561354,-5115.339622252524,16011.883756120018,1753.4267690103754,1281.1573418637138,298.263687614699
-1828.0,-5096.0,16128.0,1727.0,1293.0,305.0,-1880.2978470510755,-5100.3985361734,16094.413059417086,1725.335010170106,1286.7562009861847,304.63171664377535,-1775.4988460939787,-5182.906360857479,16197.60136783437,1725.240548479146,1300.9476660505688,302.24057277108756,-1846.9473731491382,-5043.235545654314,15998.04252802677,1724.2431289119208,1290.979166453019,304.06664924460756,-1816.7575349832182,-5170.500934252591,16175.074645198532,1717.2520480535454,1277.2178599354347,306.42175807943886,-1886.252150289028,-5113.174008087,16210.946427184423,1714.839735578311,1275.732836376051,288.60575809889025,-1670.360742727934,-5204.274713644622,16061.775196254588,1728.106633761613,1283.8843437407074,311.0906092344651,-1723.0667219456673,-5181.009991713038,16217.360240030053,1737.0984671942188,1295.0206746625431,324.3691002582307,-2008.1595170450857,-5133.1986717699865,16094.958456071798,1735.0960002373558,1284.9967563910623,296.0881987617937,-1814.2279186222033,-5160.850595611946,16199.14091287131,1718.2793862844153,1276.6675617211147,304.2285454241907,-1847.4823403809446,-5073.9272868377975,16138.062328623433,1727.4813507941863,1291.1302940800817,301.7897869129588,-1765.252706271733,-5008.341096326123,16104.124427519693,1730.4031314928159,1315.6514982313038,301.5209868282659
-1784.0,-5004.0,16260.0,1768.0,1295.0,303.0,-1864.0000628305943,-5046.116782919893,16275.623266399783,1771.0088911511032,1299.8661456522427,302.58101327475794,-2025.6091738839825,-4894.213619751499,16435.929693610724,1767.7598772538283,1288.1851398497251,313.0788883706294,-1677.1303053252661,-5062.317904309623,16656.40312467196,1762.2393598488618,1301.682333877929,293.2283662445834,-1914.6573697903927,-5119.093146778802,16285.36459010812,1758.7310851437057,1296.1669048108924,319.94520838682297,-1880.8516286786848,-4900.252589269655,16309.852214048713,1764.6555906642736,1301.991293732721,304.12046256043504,-1992.1644953293335,-5040.961217566954,16210.232650088657,1772.8152030279828,1301.41479884235,291.5244570463848,-1729.99440736556,-4886.926502183237,16437.6578264208,1745.9544434120446,1295.733701611764,298.0820136897312,-1967.9617539503727,-5020.059112444168,16240.676111170678,1784.1631087075293,1279.956008606158,303.34445159126426,-1826.4526791337896,-5172.355948116344,16317.358249280956,1771.8886756623822,1306.8378207494445,304.6893287691988,-1892.6607825437825,-5057.381606209072,16411.359590697888,1768.8903711994571,1293.8543424781722,294.9059666325735,-1892.964232122449,-5009.3667119532965,16226.524053350111,1773.714323271663,1281.1363109740576,307.43146015667185
-1824.0,-5100.0,16208.0,1713.0,1277.0,312.0,-1909.966789318105,-5126.417334864381,16126.589765569468,1719.1347151029354,1278.9012599464695,300.83368401974195,-1836.7824409186246,-5018.206800125376,16151.16644456698,1711.1572146224369,1264.1652450916633,318.67479910292406,-1793.908219189944,-5337.043512008683,16324.60633081425,1713.3538153169739,1270.0854941661164,314.55961216263296,-1850.2779025950788,-5228.3998722432825,16202.634290056703,1714.0706072313394,1269.3162203453342,295.7590629431831,-1657.2721424319525,-5108.2661094841615,16144.481952408907,1702.409704884165,1273.1999158847111,320.7597120036073,-1771.0403923095832,-5054.805133752886,16363.9649645269,1709.7938347189554,1271.553761182472,313.0852692844404,-1802.3019644631092,-5075.567712592069,16123.919659239851,1719.5634254883337,1280.794631015475,323.02339751210377,-1763.6280327716504,-5072.776779283898,16117.797325284908,1704.304476442455,1260.4008815450106,332.15856813933186,-1790.8536795122288,-5102.4218701084865,16231.801299343428,1715.1462074086137,1271.0510405408625,297.6353432592141,-1826.8255573748343,-5142.898308245793,16163.261716765248,1716.6170780061877,1273.6608658670093,310.26041289941486,-1929.7667172799986,-5262.141605482142,16066.24790869122,1719.870161991681,1283.1714791046797,302.4492461520669
-1864.0,-5096.0,16248.0,1782.0,1326.0,299.0,-1954.569201047262,-5125.564782253676,16105.601821668033,1787.9377107519736,1308.8025129964974,299.70600685696996,-1907.4472808967996,-4865.676342063045,16304.481076549251,1788.5387011672503,1315.700039245121,299.77323526490477,-2086.133987149288,-5243.177714779951,16382.40963337381,1790.0922762079472,1321.583772243684,307.88652760552196,-1736.4022240930303,-5236.512700913601,16187.641615595909,1772.639854547617,1320.3114665260287,294.1173158245685,-1864.637063044415,-5199.448256200521,16201.189810426598,1790.2651384642184,1326.3068120058929,266.76702358022413,-1880.7447295078002,-5155.020804318335,16084.511799477617,1768.8543706733576,1339.452192129608,311.515474000899,-1687.7844861802532,-5111.756288533712,16181.471532628662,1765.3558072135813,1322.7816609609265,281.32090474040467,-1969.9051558130243,-5172.914835603347,16213.1529117284,1771.3521305107386,1340.6414784763558,317.2502800267198,-1816.2699655609138,-5224.4544835009465,16326.142451213962,1764.5450099622637,1334.8977242628478,301.9349983510801,-1831.6722158599305,-5315.999304857296,16071.472296147553,1801.4360827571631,1329.735072392289,295.8865749911896,-2032.1355768526469,-5044.304397884852,16141.16672456433,1786.4891630611128,1315.839418365572,318.812365681595
-1808.0,-5012.0,16296.0,1737.0,1278.0,314.0,-1816.091154893239,-5028.3391954417175,16310.043184939263,1750.3302759588441,1296.9940385457312,301.57173255112605,-1867.7553559004791,-5110.360737867301,16238.302227912493,1754.6916718137934,1286.536279600476,323.9687019206083,-1721.3080907268813,-5106.515615625098,16343.500740672993,1737.7098340776038,1290.0119401878953,310.6692772505218,-1753.807362281739,-4917.657202557671,16136.276998027479,1728.0868777605551,1282.2384554164537,303.7565372761313,-1726.509690071472,-5102.630077713716,16297.139388290047,1734.4276304315017,1273.5692173552131,303.53568796848043,-1715.3510791506026,-5153.216278295417,16459.358869461703,1731.3580649986338,1278.458500573779,298.47211082290005,-1867.9602585196153,-4980.622983376527,16419.094012438003,1733.3089078319992,1271.3342447796228,315.3147472429092,-1757.9156002407049,-5144.0361017022105,16322.057479144962,1717.1632758003905,1265.794462538789,320.76024530931113,-1961.9582860061762,-4953.253517316009,16180.382323983365,1736.9551021159064,1266.4529050909503,298.7062874729218,-1881.662576013662,-4873.665284921139,16096.391728175779,1720.1073440200712,1288.2112938644239,302.2525218432158,-1877.9591462859544,-5085.4694286893455,16413.33030563761,1741.1016642590869,1279.8139865301737,320.09862888862625
-1764.0,-5032.0,16252.0,1690.0,1296.0,278.0,-1680.8177647899233,-5162.788366679393,16394.63051388791,1690.5364502482962,1306.7613579183178,282.4059838215393,-1810.7660529773138,-4962.550408843426,16197.344122605877,1682.9206738305304,1294.3686956440586,279.9463985806498,-1987.6519826762735,-5006.07973277674,16203.881402322842,1682.6905510755046,1310.5459689690883,285.0064151308389,-1700.6051771703235,-5253.550499717763,16274.317094028316,1691.0981741560352,1288.6095129073162,271.12008215181373,-1773.6851095626978,-4811.992591402309,16263.985673065032,1680.8555953310736,1294.118583027782,266.2453776774751,-1867.982605478526,-5110.860311696999,16253.719352213106,1687.0077041298573,1286.6702587802604,285.8751839759043,-1703.3737416856504,-5038.44355254121,16166.203595031178,1690.9605802507535,1296.2210275947657,291.15073594046953,-1659.9650582138804,-5105.125265239022,15948.169403078356,1693.6589675624439,1293.5245879238287,282.50844744483595,-1765.1219292999458,-5036.779911260288,16372.790795429464,1691.4854193434405,1295.311430299833,269.660714698377,-1679.6625376382015,-5072.46551799122,16249.253966572993,1695.630138542572,1301.08214142591,269.7115780115894,-1795.4735140770672,-5009.590518593152,16297.76585012303,1708.693021096784,1307.7292304145562,288.68636786593055
