IMU1_AccX,IMU1_AccY,IMU1_AccZ,IMU1_GyroX,IMU1_GyroY,IMU1_GyroZ,IMU2_AccX,IMU2_AccY,IMU2_AccZ,IMU2_GyroX,IMU2_GyroY,IMU2_GyroZ,IMU3_AccX,IMU3_AccY,IMU3_AccZ,IMU3_GyroX,IMU3_GyroY,IMU3_GyroZ,IMU4_AccX,IMU4_AccY,IMU4_AccZ,IMU4_GyroX,IMU4_GyroY,IMU4_GyroZ,IMU5_AccX,IMU5_AccY,IMU5_AccZ,IMU5_GyroX,IMU5_GyroY,IMU5_GyroZ,IMU6_AccX,IMU6_AccY,IMU6_AccZ,IMU6_GyroX,IMU6_GyroY,IMU6_GyroZ,IMU7_AccX,IMU7_AccY,IMU7_AccZ,IMU7_GyroX,IMU7_GyroY,IMU7_GyroZ,IMU8_AccX,IMU8_AccY,IMU8_AccZ,IMU8_GyroX,IMU8_GyroY,IMU8_GyroZ,IMU9_AccX,IMU9_AccY,IMU9_AccZ,IMU9_GyroX,IMU9_GyroY,IMU9_GyroZ,IMU10_AccX,IMU10_AccY,IMU10_AccZ,IMU10_GyroX,IMU10_GyroY,IMU10_GyroZ,IMU11_AccX,IMU11_AccY,IMU11_AccZ,IMU11_GyroX,IMU11_GyroY,IMU11_GyroZ,IMU12_AccX,IMU12_AccY,IMU12_AccZ,IMU12_GyroX,IMU12_GyroY,IMU12_GyroZ
2088.0,-332.0,16908.0,1791.0,1336.0,316.0,2334.9094572272074,-176.0684529043619,16606.44513060859,1788.7350148399623,1341.7036133069366,321.01978145010605,2074.5991236391537,-181.3437344499979,16885.185614558202,1783.7839250400043,1324.7688959591878,314.9504426262633,2102.962071336502,-98.61297754873186,16862.58964973742,1803.6102761302232,1359.909128777612,298.6326747201545,2081.899442451327,-354.0869386145125,16972.793779463664,1794.2213922505402,1321.5799832005414,323.1766763103492,2201.5860940455036,-179.4924212458341,17007.00840844196,1789.3586190991539,1334.2951984419071,318.0256286773558,2094.833938477002,-311.88746765484694,16948.146642802603,1794.6456863692101,1346.2955519324587,291.0340843705856,2051.9165854815005,-331.43795791335367,16893.77048250355,1783.4058044965002,1330.8821142796758,294.045407475691,2033.4373450345324,-461.67151519534616,16851.266142756685,1793.9246617721387,1322.991587895807,299.0972607462654,1959.152843360875,-397.0463094020006,16860.151276568733,1805.2765507285142,1329.0414816517516,321.5871302978374,2149.558410777173,-256.258295021946,16883.712574929876,1801.1730112032797,1334.2481535010963,328.4391926436172,2074.6271581122496,-404.4762756062832,16908.017201944935,1791.9305661937608,1326.7288080343628,294.0177332142927
2064.0,-384.0,16916.0,1735.0,1314.0,272.0,2038.088143957807,-476.42130916748476,16922.408632367875,1715.4246282731506,1322.6062994453678,267.5125796463575,1892.0884333871718,-269.97072124377064,16837.512522360536,1744.4398285889304,1314.5897298032683,278.83694152638185,2101.0234589500496,-272.76251865759366,16876.34522499268,1731.7670844812194,1299.426297089298,278.19311883648885,2088.644800531854,-414.04704200703867,17024.361069062445,1743.2331860395964,1327.005188897382,273.2845488991393,2203.244856787977,-628.6956901762288,16956.964062733492,1745.1376668806495,1317.9072235334372,272.1400577342416,1943.7652247961844,-330.65747055579794,16931.056519095262,1735.9838310164182,1312.3453871235988,269.6042159684072,1967.9232525090222,-370.2288494838143,16888.375098376102,1740.1811737619082,1312.310951929984,275.8718092986488,2024.8842209503798,-423.01342372862547,16884.623283294826,1741.7028189442667,1324.5108381011023,279.73191975486134,2065.816755012268,-481.6956942341746,16975.375354059426,1739.877716172544,1326.6770158053541,263.92765017514,1877.2036331234494,-499.25933343275494,16838.395965262484,1749.3672825945139,1316.6699620078514,271.7682967561596,1905.0786508991284,-293.0665082943083,16895.914629463634,1734.5733609583137,1318.5561119078143,278.82189350598065
2076.0,-320.0,16836.0,1690.0,1336.0,288.0,2026.5366810581343,-260.12805767647336,16870.802707368883,1677.1870063521292,1345.855001860827,280.4568010476251,2170.77123601272,-261.4856908901547,16822.912590017764,1699.282071880828,1335.0693224728795,282.07709874220586,2150.304611907502,-394.3176178515404,16996.160276976654,1682.0509666872306,1338.996421568502,312.50193461428046,2035.2891580940793,-289.76860233050564,16949.930051175226,1689.1111622792741,1325.3690930162427,281.24728254816796,1954.195122957409,-252.99566877983966,16691.15371417197,1681.1757684028903,1343.2657705149388,296.967633569762,2107.3163325029614,-323.0921870055586,16814.829871475547,1698.9457181517466,1364.654372886248,292.1584001710595,2264.6076385509523,-158.42985327483112,16896.378855564693,1698.4185187063829,1344.9584830150213,282.4995296118615,2328.129841641147,-326.81111070360475,16793.742736805583,1684.3693783435997,1333.0434802505877,279.9464730038884,2182.226887607025,-395.52498099794457,16914.130836730466,1686.0491142478932,1339.4439538861905,282.9090618141557,1982.294208232026,-314.6617019479985,16842.736872718237,1694.486578040247,1339.040048083322,293.7522358715335,2173.7901334472454,-435.76229696607624,16975.42345190609,1691.7711563249045,1341.6968892764708,272.82454361954257
2100.0,-288.0,16824.0,1775.0,1319.0,324.0,2122.846152130658,-91.63553733586511,16767.03649540876,1767.2528217141078,1320.1500757204924,335.9406302856549,2108.6887704214555,-244.7485994109679,16643.582823474233,1777.6285935844485,1315.9430960870245,335.42472511495737,2076.4506971840838,-230.48636136715677,16907.615064525267,1767.9856591508521,1321.2746334539343,333.25084472641953,2135.3896969226435,-322.9588021336827,16906.506481531622,1784.6165142040536,1330.9194013702302,315.1366497036912,2172.350453543338,-238.99348729024766,16952.2901967125,1779.7040976889764,1321.9869769764107,325.8469877436064,2367.433969481771,-315.9125511791809,16750.47773808418,1777.590971596883,1318.0626401162124,323.85980117175586,2084.280683659933,-237.59554750329465,16887.99978915183,1785.2029622643147,1316.125464986379,314.2436621321453,2087.6147019608175,-424.3178717185316,17039.31644002964,1768.8023104861547,1339.8109809368912,338.3682360395356,1893.4688335759747,-305.85457274515136,16771.38399042697,1770.969676288079,1316.2163410796777,332.1382153436631,2165.780095654905,-421.9302452025778,16719.34854921633,1775.4190270488505,1308.7371622223823,308.3797778273347,2040.109213392318,-402.80140417637784,16821.16028108045,1772.989304360904,1304.340125498331,311.41038492278574
2036.0,-328.0,16872.0,1745.0,1329.0,274.0,1999.5129662770353,-398.0416175519266,17085.100804952428,1741.3304897314683,1319.0690775659812,262.5287005831641,2241.121160676921,-244.34031952329082,16763.233536002,1734.0629094328588,1321.8054575730441,267.23190868798446,1893.166402224632,-205.7784388101898,16911.286943809344,1751.695701720629,1328.2355732444823,271.0681976885486,2005.7699202833937,-415.52539302811334,16946.420786331604,1743.637959213329,1336.1399188227779,255.16174430966564,2037.9179442469979,-474.98802535786615,16944.514985020658,1731.1178156667702,1325.5479022195573,286.6434080734751,2126.3854144511415,-325.90508714740736,16902.43363872354,1758.9475744847414,1333.9211702918933,254.3524110188871,2193.0829902589826,-385.64512182569973,16951.425147771377,1757.7797243450884,1320.6518574955264,257.99093938812763,2062.0555405076716,-247.52863415153757,17079.898774202793,1753.2009050495644,1343.7046679885393,297.54049735784525,2085.607018308966,-272.19530161825577,16806.372494628118,1760.3527467353408,1327.9155297513857,259.5695359314302,2119.0026503228164,-497.46410033377214,16827.17988439098,1751.3836274342561,1319.5112333321213,273.7232066573635,2159.33910124071,-286.2986522261197,16992.52490657417,1742.7671895666665,1332.3532732466188,264.1986702191392
1980.0,-300.0,16928.0,1735.0,1328.0,316.0,1988.0651175306357,-319.8236598970817,16884.592517630066,1730.0763866148832,1331.3759612685888,309.00561534342535,1914.9837082047502,-108.6520820850277,16869.771656494522,1728.445279761705,1331.625223257676,329.6763358044069,1998.4748900162272,-377.5582792198242,16930.86398731535,1738.339255839199,1319.8731788015662,322.3002962006933,1935.1388872245027,-412.5891847969215,16982.685061805303,1720.7644979818667,1317.3000573553627,314.464816597112,1896.5081215975194,-456.5700771863053,16699.705264678294,1737.3572672986968,1332.097144971946,326.8975715320968,2292.574111891038,-273.8638322916953,16937.285755696943,1717.870359152044,1339.8783308268526,327.70450083132073,1951.3972512627347,-303.8721640364833,16949.959454111693,1743.678700435502,1314.4130758566976,314.57671821241973,2049.4780753196055,-195.54353003989473,17010.724438343503,1730.4163455301104,1334.8231760319682,320.8706959436128,2083.134968210667,-295.14054888088424,17115.61425792963,1731.7951356935855,1321.7578520734974,315.9568547396582,1981.5380380228241,-179.32247052498042,16964.101553258046,1735.4495483096007,1325.287509372442,325.530847013779,1818.8578635040842,-263.5386245663554,17154.80906641506,1726.7302154378758,1307.9074804399334,314.63813425184117
2004.0,-348.0,16848.0,1719.0,1297.0,308.0,2087.5759475867208,-382.9859629167758,16965.99722678166,1755.7648350195216,1294.3763351040352,318.5933141463272,2024.795356226323,-311.16758427926646,16768.960988539355,1710.6461995103446,1277.8526800179568,311.72339990087494,1892.982176292878,-253.78305635925932,16907.804255929615,1733.4274157857192,1303.282019647945,313.70959725464894,2060.497114982529,-236.72021095309287,16940.93281374501,1703.317236716001,1286.448537828464,318.12441199009083,1833.8156065308942,-436.00957616691034,16680.311069024792,1724.9444166517214,1287.4081445409774,331.24895753637713,1869.2267309039823,-206.92207813261817,16713.497401212586,1718.9621425652385,1291.560216868167,316.9067772762802,2019.1329246624455,-249.98901002065304,17017.51861392012,1711.0122820550735,1287.0937023167571,324.57718608170876,1843.26068149555,-224.754912886526,16873.06887208491,1722.8787270911455,1284.24535922455,308.7824956653138,1987.8514165164167,-454.4183166177708,16868.478861006268,1716.7226216476854,1282.8462208302274,307.2089293732603,2143.762581630673,-345.8838971219663,16776.613123599043,1722.3753144085922,1282.4884905584129,314.7398241164259,1931.5847434992208,-522.2062474065482,16878.888377824416,1719.163094570064,1283.4720470300074,315.26001015204946
2088.0,-332.0,16832.0,1765.0,1327.0,314.0,2123.874104678178,-471.61827589572016,17007.623924320655,1766.1244988987294,1316.4454605354244,320.92974548195326,2218.286384072408,-270.3018882420528,16979.145298919597,1763.6811490978648,1308.0644618038891,311.3405765870727,2021.124444248215,-377.5760349095935,16883.049676918756,1768.854579260119,1320.2636906993605,318.19896202738494,2037.5484084738675,-274.60777032947163,16753.740810926876,1769.102365816817,1323.4161291361238,301.9379019825227,2047.8972740244399,-312.34856064033795,16926.947891025997,1763.8645652621153,1326.450533493391,314.79371423041346,2158.031597296901,-404.1964345520365,16784.45572197998,1743.0629481929998,1307.1377733210327,321.20090654652734,2174.3610920587016,-479.2845646473137,16946.67787239491,1764.9530980635498,1330.508787972735,311.5846170571911,1982.3963033343882,-361.89177824745616,16740.76717801251,1766.9648894172112,1330.2895038579227,300.83016672453454,2126.283215705028,-434.60634903932623,16963.01067367674,1765.361637839369,1320.0735623521655,322.43423726251467,2136.988963783624,-367.1751101827729,16858.38703554079,1761.8191620021237,1325.4758054854703,315.39934737213264,2159.183818451765,-256.072968909627,16615.205902369013,1766.1491105909417,1330.9102443894133,308.03015732725316
2040.0,-300.0,16772.0,1744.0,1331.0,322.0,1960.7680769592037,-284.785319595755,16868.505569333094,1736.4457444884324,1340.7259618583078,309.3989747656056,2014.1042443580805,-347.7357941177419,16579.500405283896,1728.8593214253913,1318.9481414145016,343.6554799051436,1997.4891488033284,-290.1417504812917,16724.597929144802,1768.8275468932882,1327.010577278662,339.9872109368686,2026.169417502299,-351.5756648934434,16818.062172687292,1746.9886357483506,1322.1214620140001,323.6652895651944,2163.788315853959,-432.22895408468986,16657.760722953128,1741.4082039794516,1338.345426593041,312.46304071999805,1998.5170291835984,-413.8438442802946,16766.254465035792,1737.571410967478,1347.1677358711054,309.53345599778686,1892.5031861906505,-380.97578444537555,17061.601951818968,1746.4404488934545,1334.2134330517495,315.37230678411305,2004.481687580783,-209.60002961316337,16573.7645246351,1751.358180787022,1334.712411486136,320.45094411523917,2103.200392745189,-268.54957487595715,16724.046199160435,1744.8578176012893,1317.8166842325652,314.7419133415388,2002.3355991457493,-496.69327857436076,16593.80043768209,1728.8463906698164,1333.3900363307812,326.5527042598649,2067.017956714813,-270.11652977085174,16920.967093665255,1753.2007618559562,1343.2101969732305,331.8421728459195
2092.0,-308.0,16856.0,1718.0,1346.0,280.0,2016.986784980913,-381.7141826009754,16904.190842588967,1697.6231663318458,1349.2282482698895,289.63540187367323,2118.847161273598,-230.80656175313194,16871.028099071882,1720.2587052286005,1342.3870710554506,279.9717269697961,1980.6932458603721,-373.30055402171485,16817.95547286904,1694.6424470867644,1328.6291943402869,271.40707701508694,2192.533545847692,-260.8520880548534,16942.520094384676,1735.233895071478,1324.778514269276,285.96253763224377,2207.555570396963,-344.0660691724905,16908.23973851161,1701.1000576242607,1347.0457234594537,277.9770685284092,2191.0770680133596,-146.76685708085043,16892.93754905384,1709.9901781057315,1334.7019528498151,287.2559748368906,2240.3497901129153,-275.15654480694354,16799.15666263863,1715.1766870074418,1348.6937931398454,283.81889456763145,2218.9689095555873,-241.0482959737305,16894.54221343393,1706.2192425112403,1345.0902725632338,286.6615959352393,2139.0198539713138,-277.7750343051969,17001.382908384832,1718.4800365869119,1340.1319716988726,281.49314233265596,2056.9484606863407,-399.45934011805286,16888.557524832067,1699.7184326238578,1344.2889143917585,272.0694890202476,1999.3598134044528,-190.3999997370196,17019.772967272296,1714.2377400341165,1338.655009767025,267.9080150634427
2060.0,-336.0,16800.0,1743.0,1337.0,280.0,1904.1345357611463,-364.7473364217081,17032.207470664755,1730.7572913005642,1329.6740389197182,274.2550197677849,2124.4119327132103,-328.933829255987,16912.079659647014,1743.062256231429,1333.9728369222175,277.9551139847554,2115.8041448408176,-300.27691621796896,16739.969805247274,1748.3522132954838,1324.6459704642366,287.5262621850872,2242.5692127473376,-382.23383877199205,16909.59056733698,1734.5220403786132,1339.7354029085836,283.6534277218385,2144.6369888038757,-343.5345713517605,16778.19860958215,1724.7193724237763,1332.34290085301,266.2695575022606,1873.5037129512775,-542.8569256815134,16913.50250849993,1738.920752757116,1333.7475188001679,265.6001697049091,2095.045066786015,-233.06388522390967,16603.368973180433,1752.7545945106046,1332.9987593702579,261.7759874619728,1932.2935091432228,-283.9837020294376,16871.275085533693,1746.8130488190095,1342.045750998314,285.2720264222951,2095.0834779166125,-285.25011894386165,16758.120504592134,1753.3096928150037,1316.4226178417257,286.6162321281042,1955.3264545360707,-373.3107240341684,16434.33381648187,1751.8779891916113,1337.1912885000822,286.112379479885,2184.3618178014385,-397.2254425452696,16636.13603423734,1734.114094382295,1313.427942328033,282.3989495088078
2020.0,-316.0,16936.0,1735.0,1349.0,300.0,1913.9522181407476,-393.80920464140047,16942.35135512651,1742.1775374249319,1334.516170229853,300.19230267381266,2197.308730022131,-289.8036876924383,16894.769810523958,1738.1336513840797,1334.5093083641082,323.0052034704365,2183.5303632779883,-229.7831014584103,16959.382244318174,1725.3061840853834,1346.3369808605785,313.59980676713144,1948.256521962419,-266.0632941247583,16897.722410341725,1742.61763683366,1340.109083355944,290.5727061893312,2165.6455705284725,-308.4876860746735,17069.587053670468,1714.19670009207,1338.2693215969077,297.9577432437109,1965.5516435165794,-387.8077245762633,17045.243047993477,1751.62623481242,1344.3661850568674,277.4664764535593,2172.4083823993633,-126.93875603740915,16956.4377498081,1738.8476879724788,1363.0228671110003,281.96051671100594,1933.0257498128599,-216.28827044753612,16817.666483229124,1749.0412893286991,1356.1941318289048,298.7008083768549,2254.019738337365,-284.38051860555373,16836.246866683923,1728.803670225103,1339.3655655045181,306.5415768129663,1999.8509514585294,-269.8559307487473,16835.996126920403,1727.88120849125,1345.741052113711,308.6164485207103,2080.961820503154,-136.2797320835962,17050.801358733457,1749.267391381367,1336.9836820070298,303.16141542907815
2000.0,-320.0,16932.0,1701.0,1329.0,294.0,1992.196674534841,-284.7826706614426,16861.142205167023,1692.8667530986181,1327.302200627226,293.5773149535185,2022.2779403278123,-563.0739864326499,16961.629500786978,1717.1782058426904,1320.1828294756704,293.49440184511616,1897.752627010741,-274.60096700924504,17004.886464692237,1701.7527119895676,1340.3781881486912,278.52695160518215,2008.0054220715624,-439.3168751679991,16870.25925969914,1706.1464621152293,1330.0290168696972,281.4332346709164,2161.331848149005,-379.45648477711006,16954.337867861002,1705.8584976171344,1341.6127002827259,310.47635147987216,2087.0664089229704,-418.6182457622834,16833.52823713546,1701.957648160204,1332.4165718815702,329.42942977129076,1970.7177152537379,-307.4797956657437,16870.88970311252,1699.0975731699878,1323.8553213116518,289.4038083981561,1969.9260081719178,54.22629976140172,16851.018787936457,1704.2964900589143,1336.3147404071747,293.27205039785156,1844.777773227387,-323.4960935921056,16778.375563501973,1677.4591707217592,1332.5746726611333,304.65796192863445,2021.258858852159,-188.3457585400959,16783.627422800833,1685.0472045412316,1331.7643219778045,269.6046709447621,2136.0311332481433,-418.67254145596996,16815.499716289025,1700.912680833775,1331.7511217433837,301.5147930696646
2096.0,-312.0,16828.0,1722.0,1321.0,250.0,2011.0727195349543,-319.48168620848577,16980.22878419998,1727.609093355835,1299.5381609076924,269.0244198428214,2190.6910719967454,-272.6089606100164,16822.59857348511,1725.1393525709698,1326.8413200316136,262.67649621012396,2142.8072720706705,-70.7475231266894,16816.66794533536,1725.9375485855078,1326.8261104111336,229.25291509550814,2196.560174624965,-415.09214020978334,16704.461087272528,1731.050858023449,1312.214069128533,238.75237596997223,2076.833232828948,-429.91680278142803,16619.386121966232,1719.782395786961,1310.2774561718506,260.9107907317659,2026.2466934888998,-528.9619227944365,16851.766477086043,1718.4887147505183,1324.428930696125,247.3749916717813,2145.205945115665,-383.72060997822405,16928.26978252807,1731.36225160994,1321.9841451190775,251.13915772071505,1927.2332218008705,-293.0225583814093,16680.793830612987,1729.0757552942791,1321.5098099859001,236.16119144236058,2148.066442066037,-359.20185392002855,16943.656511228393,1715.0818734942086,1316.1992336088572,258.9200839180913,1970.7020970005751,-127.28138337460385,16794.214249073648,1712.1178133585067,1319.2228534039184,250.5972788839697,2230.6043014117176,-374.6857477375332,16675.116534415774,1710.9746940246096,1318.7258470127713,268.3515204782027
2004.0,-324.0,16872.0,1742.0,1318.0,287.0,2125.4510448423925,-335.77857472057104,16785.981750701903,1744.9862144504534,1319.4226319590978,281.1665694794609,2003.4660781198852,-277.2070557084588,16969.553991431356,1737.9529113809926,1329.7678923783121,277.623182793104,1845.3964487075777,-265.0314549580467,16734.129525006752,1742.7782752203527,1310.613077757597,292.958302345911,2132.1889590749797,-339.2302198685613,16951.551551065666,1740.9490658724483,1324.944344016519,286.43629720377794,1950.4083940831467,-257.1999343161466,16888.308995975,1723.4119899454922,1332.7536809421263,300.4796774433843,1989.863146981705,-266.8782200858685,16768.38854086867,1741.057270939288,1320.2536105741278,306.1034291245596,2041.682213694245,-470.6063688771642,16896.76452007396,1740.8422536364853,1304.5513955779952,281.80071998681416,2228.973411099594,-406.45956464078535,16964.797943397236,1753.0607711314142,1317.6803402818446,282.1374389557756,2073.6600425704337,-308.8458926414948,16882.91884434658,1749.5094762237147,1314.126603666109,300.39359830502144,1752.1083420183836,-198.19678302304868,16854.000684425027,1748.3872806874188,1338.8905787728977,296.36530942446257,1938.6520435408981,-637.5894965316049,16754.882363963017,1743.8220485943755,1324.4424535789158,285.43430748319383
2040.0,-352.0,16804.0,1704.0,1346.0,307.0,1890.131199309416,-443.21526486540654,16832.138601986295,1677.939098981728,1354.4231084105559,301.722532831716,1962.735206041522,-466.37559932822563,16856.28101257059,1690.0419300446442,1351.7069009416944,320.61132333729284,2098.4322843130694,-160.40149754504395,16773.83681053296,1692.108382553901,1342.8368049614312,302.0304934431637,2066.582468640555,-423.36742496434243,16617.95596539993,1714.6128702939693,1344.3457971040032,316.96420939485773,1937.3382565999711,-259.540097029693,16948.13583404719,1705.283813030738,1340.291317432973,315.6307757347784,1994.6475336547248,-423.27713466927594,16959.717963148396,1703.931842938137,1356.9003520585409,305.1568517106935,2115.9947360009505,-380.4353748932103,16835.32814369,1708.3645861138793,1347.795367090459,308.73386327345213,1819.0146835044802,-212.12811335206968,16913.338729134495,1713.5327264863204,1347.380262379922,317.1090063120199,1854.7404592935839,-219.62773686312892,16942.31076988189,1708.879407363848,1339.6513550548236,313.127474963205,2026.7190868553396,-388.3569485574094,16868.17855610577,1710.5979701024605,1353.4703926008028,316.54563870779515,2085.777391636252,-441.5787763125544,16891.929828325992,1693.7787272290295,1347.582119253001,307.1296673942709
2028.0,-296.0,16844.0,1735.0,1332.0,290.0,2112.2309474144336,-293.82211873765345,16997.741157362878,1723.8936895952115,1325.2436996429105,276.19844835742884,1991.9299367563447,-414.44284009132065,16911.232372267776,1743.5556203210447,1336.4435128686584,314.52370826868827,2129.3631968831305,-421.3052864673934,16987.24183695822,1731.399663913828,1323.1487911077384,306.8565021236303,1917.5433502331248,-367.7284053007701,16891.7630485801,1728.3443242528142,1336.8456811873994,275.372109430865,2139.4187582973773,-385.6984150263883,16801.499290321302,1729.8842883412144,1327.7239122669596,291.60572903295736,1967.6369496869868,-407.64849164027305,16875.240842710056,1732.9380640324434,1321.0506600585438,313.42315788948395,2145.8118555889405,-194.87296551118416,16854.727805468345,1726.0350417844923,1334.9590542023552,286.7170743343086,2019.3385896997856,-304.58363870496134,16759.290827486297,1734.050941133443,1329.1820737011888,284.13483909323486,1967.6143015028943,-297.5208626286211,16739.045885956064,1735.3907239758898,1335.0836354032076,290.5346150032515,2119.35553770839,-265.4768247785926,16867.331482326405,1733.785060219668,1330.5002196419011,284.94178174801993,2015.220075692378,-456.193817536509,16920.9054981515,1737.1023755688545,1337.9682506537106,286.73641422047365
2028.0,-372.0,16888.0,1738.0,1330.0,303.0,1974.7023985494295,-278.1492270907504,16872.994347504406,1730.9050022101721,1334.7252857642181,305.7577660532334,2074.8981850757505,-393.18322267672824,16910.876239001263,1719.6663933311308,1332.7176707160531,299.75393197523243,2120.4942892644585,-87.61814598058686,17036.486912067063,1736.5976035203464,1338.8075604370524,297.8258975443755,1943.2547035444202,-355.8556418561004,16787.70260158797,1733.5728068658352,1321.7869301144854,304.7357987128192,2001.6781748538804,-452.18149937087605,16915.797183858154,1734.7579991101145,1349.2051043006375,295.7246456135221,1936.4441862700978,-442.6150998426282,17035.40486120173,1730.3497587455145,1332.2758039901482,309.10162845847367,2115.6859419431908,-307.98569306968216,16993.434421158276,1744.6483833713817,1331.3270748264583,308.3312073829438,1847.435755069379,-207.59698814669156,16731.57552805164,1724.0793731408894,1338.4901660389282,314.45269717180435,1958.0240208954594,-372.6529386038573,17020.891637790253,1755.606728312245,1333.0187278263015,309.913310948672,1999.098049498392,-391.79903717842774,16949.649207732247,1750.7845207533346,1347.856835678826,314.5173163877128,2048.737329877875,-339.52286119225914,16932.531941961715,1736.6305748062903,1329.508948675061,299.6709771126147
2104.0,-360.0,16824.0,1700.0,1317.0,298.0,1938.011889065716,-342.48518318988766,16802.182422541737,1705.0145739854424,1326.6346993010472,292.21930246351985,2128.4573745615276,-298.4892156099011,16837.286263495913,1707.4093223161353,1330.5404405917204,275.7630056390395,2118.7882790019444,-311.4517832807336,17007.135070784632,1685.4104127075684,1303.6439406578627,295.7148242964998,1993.6900343083464,-422.86769108229544,16849.674281014853,1702.5784039601601,1310.8571467586335,297.03896556027735,2096.907062423788,-151.82212994480813,16672.52889142018,1699.4155924573652,1304.8511538464045,304.4069337851425,2147.177094860217,-408.62981763284233,16678.411816517844,1716.6550538581134,1332.2523375258186,310.50500056407105,2202.0717593185645,-365.00037679792894,16790.599781690584,1703.9773516303992,1315.0849716777764,304.88861160503836,2039.2446274136535,-376.91053574551864,16948.951995339718,1706.8087059114985,1322.2679723132894,306.09317332594094,2008.718137401524,-371.7818500789271,16764.3848511573,1683.7169402051834,1317.664544691687,301.3023599817284,2154.627259771857,-333.1110277479358,16802.985672035662,1712.920363713631,1331.1023587191712,299.1043225860019,1931.5070794958424,-490.5187288873367,16761.002138885735,1691.5707822476454,1322.6497389522833,306.9441415776626
2060.0,-332.0,16908.0,1745.0,1340.0,310.0,2277.1854613707505,-473.56065357429327,16965.5929595285,1748.9707895756292,1351.8416411902242,308.4673182583691,2112.437592490109,-323.8085878589121,16908.861124058294,1743.8219358020162,1332.5671927293392,304.48402734531703,2115.5954624918177,-530.9328356881258,17053.530636252588,1753.7581833238362,1353.7695264139409,306.7652043601527,2158.6841323033714,-505.2658912045369,16663.845082630753,1748.4522873232854,1333.387168387313,311.77674529548824,2161.6300933737916,-420.8959666738167,16886.49909089083,1751.1835170942923,1346.1325122361484,302.5145413467595,2119.094595483051,-330.7587063281943,16884.905924078463,1747.9569655307653,1330.8778785142858,314.8855396167388,2182.9454966087987,-218.85121607953664,17046.97577720475,1745.504128590225,1325.4646442992637,293.37235972245696,1757.4338910876636,-284.6779701746284,17116.00810145386,1750.4135291602072,1323.0184241817765,318.36620194113357,2208.489759241358,-393.86439594181775,16964.64993717589,1734.798512689047,1343.781427282051,307.90995767218556,1892.3166970431666,-508.2043315012089,16950.150325883835,1759.6355731325298,1321.2038601277793,311.31409528783684,2091.5661417706356,-323.96632227659734,16780.212768114772,1739.6954352580158,1348.0458112251101,320.816760878715
2076.0,-296.0,16788.0,1761.0,1333.0,302.0,1872.1644973691762,-148.6149438484063,16972.494700624145,1761.6058117834837,1343.6919685288576,298.79016617736625,2204.23427836056,-288.09296967550995,16681.304922073185,1738.7192938966,1328.0265378231836,312.0169515160473,2141.2145602410283,-179.0770564579824,16804.25024367704,1756.6795625930695,1317.319178812547,311.01797067261145,2253.0228880957984,-278.3763401623083,16753.50276073977,1748.489710239946,1331.224324291444,308.21141239025246,2094.9115899403682,-356.87171917682934,16797.84279956154,1749.7514318937062,1337.9002465387018,295.3368044780857,2132.606437140015,-180.64220960481993,16852.014464288415,1758.6080189363095,1339.2469048331382,302.46875144834996,2045.899504455708,-282.10435431470006,16518.688156340144,1773.1576586845943,1342.157729599699,292.70009052513524,2008.6570411928578,-84.93838312413473,16783.032225101695,1756.4036698141651,1335.1087447004008,282.61289797065854,2007.4633876489122,-55.59451368381542,16669.147252832085,1773.3686844709116,1355.9222862242123,310.3866096541182,2065.1450167956955,-233.55202668565377,16756.89106482315,1748.0560236978215,1347.6162024328305,294.0915056776582,2122.4768602219433,-409.35112458262756,16755.398138246517,1765.277348825766,1323.63960096251,306.14215703267234
2112.0,-308.0,16872.0,1714.0,1317.0,271.0,1832.956761735104,-174.42402072342176,16960.997681817487,1712.1744442029976,1311.93998069667,282.1785190560811,1875.4103948977388,-453.23352999281263,17052.080778943422,1701.7316670520154,1322.0594565896354,265.10878639728935,2050.187777997763,-346.3009876848482,16944.726138247806,1707.5722655479613,1305.6792947192791,265.96166731164936,2035.7818705165528,-310.9696070680704,16808.172014844567,1724.9288022050462,1313.4139398718344,277.24535034358934,2044.6856424919063,-299.1837761517209,16836.00608745093,1710.59173366891,1317.1308937390754,284.69261278315093,2180.3445330294376,-312.72873947297586,16875.22363508828,1727.2077846686568,1304.466962711351,261.2429851718309,2001.3043011499485,-99.98990500635719,16789.61265812425,1718.1975612575095,1309.7790306159443,259.6350295818157,2006.0530901132843,-302.1283320335731,16883.232550959267,1716.6141672178464,1321.9891730540896,299.5809058251353,1968.5573977044953,-186.47853848153403,16888.934804286993,1707.072559615752,1325.4972943157131,283.4171676622097,2173.393228112784,-270.75144773548084,16851.099416431785,1719.2271924705728,1303.6001636667465,262.5633280034209,2082.875750356382,-332.1504590831826,16793.218985581774,1719.940215844809,1314.8572637557365,273.65341594451587
2040.0,-304.0,16960.0,1737.0,1329.0,309.0,2027.2468206362762,-237.4283925170887,17027.261107622824,1741.8491090722455,1348.5123643324619,297.8690189116261,1883.4794602839631,-226.0740152902448,17088.865349674175,1727.3246082537728,1305.616217808228,298.9729202271839,1984.5676123780624,-336.97303444933823,17094.796623372327,1735.44517312239,1346.6443325467253,313.98078949944744,1879.6412706542258,-547.8235527139641,16762.499725476286,1742.1640985985723,1321.129445342371,300.7683956237354,1886.4904092385636,-262.4206115006202,17024.778205119863,1732.9778804705436,1331.1786056963163,297.71606469855055,2020.5653251945064,-349.29860465589127,16997.730666954318,1736.750725199836,1330.6668200134254,320.4012369869515,1845.2608167722406,-407.8444084785399,16859.35634716256,1750.6396324004647,1339.0509700645468,303.7383836974218,2048.130607309914,-271.26176948050005,17064.88230282854,1748.4156970070892,1311.2440627380547,325.45688976263875,1990.0953604339009,-426.1535620455461,16818.1370265433,1718.209947146214,1338.8371341796692,310.3866772525692,2149.0361810213503,-210.0240144554317,17039.58358943365,1717.4897398805376,1351.550192624917,322.1514186493333,1888.8046282894102,-232.09229203262532,16866.512602722967,1748.3672680665393,1348.3364283839815,309.5527019621871
2084.0,-296.0,16832.0,1733.0,1317.0,329.0,2081.9804875189093,-170.08619901651747,16874.3345984855,1730.4288095103648,1290.1749524718962,332.5584865160225,1951.974403384806,-317.4633921280012,17037.450132695587,1747.3629105990728,1318.8908478774988,335.572035024927,2161.893474214384,-313.3107046142389,16795.492298623358,1702.7687799151413,1310.9009664231414,327.0992310911742,2079.6361053502324,-342.3939201918642,16791.85354190719,1728.338805713184,1303.5180840558874,310.1966754595702,1889.1554767476875,-319.34085386164503,17039.273693692412,1717.045223288233,1324.5857058134868,331.04976262604873,1992.0423183059204,-355.23640216566895,16867.448401063393,1735.1951138469728,1306.7250128450291,311.33202606292406,2012.4390291486902,-404.33325161339417,16780.140020663217,1749.3459043356759,1301.9512906001023,328.9978403084379,1943.0995387215573,-274.2435574023163,17043.235973995823,1734.6370251521362,1315.0854097302552,321.20145373515146,2149.6288896115693,-251.75461554928205,16697.81498248298,1718.5195574280363,1325.363835044998,319.49230847681133,2175.377204260975,-265.470799733322,16871.369557095106,1739.2591266552038,1323.7535078910335,328.4127260667138,2166.6121303633254,-487.2510381518438,16663.30298000426,1725.8456724437897,1309.763020068468,325.81561548242325
2012.0,-368.0,16848.0,1704.0,1316.0,264.0,2063.86846125061,-343.46537066695157,16861.96890794734,1684.0453810899285,1313.8439495290713,251.49513367234945,2024.5729439776587,-496.30643925834704,16535.008375360132,1690.2950444761173,1300.9939312055399,246.69467049344857,1927.391789877763,-499.1651376716218,16891.730873024953,1700.1476905219981,1306.2132639266688,262.2751100462152,2069.0951850842557,-312.1195860801375,16880.48941323957,1701.0175675253447,1314.9887927577831,259.9469392617288,2033.0824477663416,-335.6126595737967,16707.033395347993,1708.4034957593472,1315.0731206326968,268.3644429687246,1983.3319106268204,-336.9402734109604,16797.95449564878,1702.7648698581913,1323.4215638814705,279.58638129679963,1844.4384545925836,-485.92833505842265,16792.927264975035,1706.1455559031474,1302.0326780341734,264.2528493774807,1775.6939034839127,-403.3336076108886,16985.48648418463,1707.500701226145,1339.0763333451523,243.0123015294286,2117.6832474095045,-360.0744229156695,16840.39441805806,1700.994702410492,1306.7223236645013,282.5068314982166,1929.3778004498581,-603.3112812238204,17019.409339665457,1703.70968595928,1305.2931632177433,258.95824958315796,2148.5424478582,-289.8063120687704,16851.543188311363,1717.2000614406181,1315.9825640289237,277.97198534550205
2140.0,-304.0,16780.0,1721.0,1307.0,303.0,2032.374616777879,-316.0900610609378,16659.174866721878,1719.9910766609175,1308.392898718106,300.7818184758809,2127.348704380999,-434.77035189638843,16876.262019128277,1721.6024166819066,1303.220067281271,295.92268282156874,2207.90131953165,-258.90897296609995,16641.89755678667,1716.8391525406932,1300.018425596066,287.9827189312942,2127.1889331026764,-379.39943129806977,16734.044214681762,1703.1421391001359,1307.154605914228,296.3616432100414,2108.2252185977804,-417.0835428262197,16925.691424973025,1723.5378588475576,1333.6668007497476,298.54962431833934,2288.59276301279,-340.67515543026525,16802.316185986565,1711.6440319873884,1304.0753904431547,306.01695848423327,2252.625977517984,-247.80361196563388,16731.682077430454,1723.6526810040116,1310.3908612383548,315.1553685711291,2258.97716001616,-345.5983936674338,16774.277635208895,1694.43490893539,1310.2169665988727,323.31983620703465,2152.338535156091,-175.6747676066668,16651.234923153293,1738.1026980193644,1289.3753629028731,309.23560778296974,2214.703938600896,-443.61057728377034,16906.956069337888,1713.3482487303636,1304.8144016996873,299.6718291100307,2134.0909395174417,-381.1939581856209,16612.433830687987,1711.292939761195,1334.0954464293777,292.22065773983064
2048.0,-324.0,16972.0,1703.0,1283.0,313.0,2030.8754307103102,-445.3509817358692,16989.77327278285,1702.0407504089123,1290.521655846948,299.68108750546304,2091.2679310570993,-378.23380869297546,17147.026301818725,1720.6746126006487,1295.4233270966056,339.92354109781166,2165.2412628732413,-412.4990552520613,17014.46985370742,1697.5301287213667,1284.179262844396,305.2440768366461,2177.3203157847256,-245.30496716145234,16885.704335427217,1690.3515849264918,1275.9004366129952,313.8162620922684,2032.8040719007017,-361.7758875811515,16963.63479082306,1695.391802812007,1290.7282613306847,309.91035878550116,2116.3661475992412,-475.53141890641143,16913.949821543276,1698.8844667643154,1294.3055871501745,314.33926433926814,1985.1020283225732,-349.5119386578082,17098.340669613743,1701.59826144413,1284.5806892817739,332.8985688206566,2134.584638716079,-489.048813631092,16832.289769672156,1690.7251243978712,1282.9902730357403,312.56174528109256,2017.587819897028,-277.66986881368695,16929.346568081724,1710.506361519446,1293.604116055715,320.66241117906225,2289.3932804722053,-138.98408033321917,16914.762303916712,1694.0968361967589,1294.309566398996,318.44474727337536,2157.0236763133453,-308.29578263078747,17008.821617078196,1708.8540468775739,1297.3364613659126,325.7712633067531
2112.0,-276.0,16888.0,1765.0,1332.0,280.0,2195.248341708095,-417.5542673946428,16771.945255810744,1759.3955362145996,1317.6045977065473,284.6876946523671,1984.5594002888163,-206.42256675887666,16864.30273917911,1757.189493210078,1339.1120007711454,266.68797960755563,2153.2941393883766,-321.2100468253467,16853.74247359475,1783.1926575314153,1326.4402048317595,276.53327580348525,2175.22533403194,-238.88625649401575,16854.494190982103,1761.9633014109684,1356.9171835456086,293.83588487359015,2202.724806784069,-32.43779395294723,16710.67663176253,1756.0889076202789,1337.1187828350953,294.07709731589733,2043.3746423174416,-215.95978219319005,17011.726220002525,1753.7718735549,1337.923692066568,273.2197380854294,1972.570786018048,-406.17318256623787,16800.307211398358,1754.7682442413065,1350.62040649881,279.55596566509587,2153.0485113882623,-236.05057138968766,16928.535799170364,1757.992253673334,1330.7734651125477,287.43707353916665,2097.400108761549,-340.711383588892,16932.622883792945,1775.4442061357192,1317.8461791792975,280.58820767022627,2126.7769986705607,-280.8910607450874,16679.10675162674,1774.5538925985938,1342.997021898459,264.78307751112897,2095.9411640965627,-386.29240663799703,16940.781873196345,1766.6084811110445,1325.169836310296,282.5145857246977
2044.0,-400.0,16860.0,1786.0,1363.0,297.0,1922.9073298773303,-205.3196813864961,16822.506348608873,1790.0579452591733,1343.1111194896553,300.22326660738827,2030.8551704206084,-455.23999911385437,16727.415215553432,1779.5923317509398,1357.9076397081194,293.6775188479312,2095.127117186138,-383.6701201195707,16850.073359472597,1772.4297748497013,1375.693068308207,297.51891383117237,1906.3173257754274,-462.46218385592164,16721.697048284313,1781.8129328403309,1368.1717870295133,290.52330055639356,2092.8182187014745,-260.0771445861496,16706.309144365223,1793.0834906942553,1378.73073186582,293.49533794465617,1887.9233366335193,-511.7298280790638,16786.45103483184,1794.6116752837222,1359.095029950611,286.4889178300396,2137.2198820063195,-434.44052009144906,16914.441669500233,1788.0300672192243,1372.0348491616821,300.6419073762885,1891.3886721315832,-474.00986722832783,16790.415968441594,1782.3093034784465,1363.2928063569582,288.96881101718094,2008.329104688247,-408.01981022219167,16876.132299182744,1763.355926690457,1365.0651875491485,286.23468348259104,1942.4808709659922,-400.93014510080064,16920.428540423276,1771.2087005261826,1365.7030003341708,285.8800516422488,2057.0058402558793,-573.754005285973,16848.921722856638,1787.402349553523,1362.7732137332566,291.64654221033925
2048.0,-284.0,16792.0,1755.0,1380.0,306.0,1889.222352122368,-344.1111801769265,16861.945647591303,1759.2276563344453,1371.3809634420402,301.8675604623722,2007.2289383827156,-361.45309752124433,16796.935717899927,1766.476391401018,1393.9184573505024,307.385890188442,1905.617210639053,-500.134783760084,16832.552598815877,1762.0993812369375,1383.771236946453,322.75135422732154,2113.626636282458,-207.7602876893066,16650.045131638148,1757.5585512019156,1388.1306475605297,307.18644537522664,1959.614155891888,-374.03498488412754,16869.777867047364,1752.4173891264443,1371.7979005287561,310.5209469782709,2133.563704591935,-207.0149378933621,16729.56904170468,1750.2679814321875,1375.0606540881085,304.02286791542934,2106.3584952661813,-321.2313141724298,16875.07104010477,1759.3131005803045,1395.9074405167808,297.2028999526984,2076.5832383201578,-138.3810882711798,16698.591588667,1764.9053074739106,1401.4879262787622,296.4669447721543,2055.062675890399,-171.3251676142748,16627.597410341506,1744.8956661300515,1395.8210036548287,302.85305097158766,2062.0304125783105,-397.64416324851675,16996.03692563371,1762.8005712041775,1385.2665477877658,300.7992457975794,2167.7609544743996,-136.7870975173849,16841.51408816691,1747.9430771407197,1371.8254518904664,311.004631110189
2124.0,-356.0,16764.0,1749.0,1349.0,285.0,2177.580141941013,-332.5601126183917,16828.31007832708,1748.0048342467446,1335.2582550715406,294.74621776460174,2045.5820570424196,-457.68891821007696,16678.33377696461,1746.5779488378816,1365.3471809835842,282.59915639975486,2125.763386376938,-426.65006416163493,16888.939967463743,1742.9799604402792,1349.2130561994047,291.2615956785547,2107.130020289157,-393.64965321435847,16734.99542586216,1750.712636437287,1356.0311907865123,265.3790405701534,2265.5994522144515,-461.81539868632564,16654.873773562005,1753.7492157023585,1362.9179669908742,307.4560480039486,2093.081436745583,-263.380645977615,16587.756847239794,1751.870396046653,1349.3558666242157,278.55221262717,2189.666546868742,-164.83461860162097,16755.526188411357,1746.1257806024107,1350.832737508502,286.4402048330971,2134.7567836022076,-294.7568693940908,16565.687327275988,1744.9952732548109,1357.0315566576269,278.3671284588358,2055.966850937306,-338.93472902796725,16839.64606536242,1754.7630149091783,1348.7596968821688,277.33841615628165,2070.63437744849,-289.78141032646613,16896.814352514317,1757.4656168922547,1357.9854205181357,279.96116564656216,2247.446891560488,-447.94958327228323,16634.641028819613,1743.138478780358,1333.5126645607402,296.60505764548213
2028.0,-368.0,16812.0,1741.0,1334.0,272.0,2109.4908416625603,-196.18916432853152,16765.365329183085,1723.325962784088,1341.3111883303484,282.5632935663329,2024.683870922978,-329.2438040402931,16694.894149864438,1725.7372433250048,1333.6121575370069,282.63562264766233,1968.131995266433,-309.54901865797524,16797.66164550283,1743.9054372340331,1342.4189148347086,287.32286994309595,2028.2417848477044,-375.00554631489774,16734.09676062122,1747.4503272117295,1346.070267907743,299.7675546897508,2183.6344407224256,-347.45720053933536,16655.72071833605,1752.1866627265279,1335.0990841109974,275.74042447081337,2194.887023448821,-206.08893751643456,16829.824291445686,1748.2567342327056,1323.2421459783611,282.44394817900866,2233.6372650922317,-352.4940983765322,16819.11434877625,1748.9521106563675,1336.527020850382,285.68295595895745,2053.8174121591787,-270.79539945407913,16755.272735275958,1744.3973937908063,1331.4897387647097,262.3348800264406,2021.4389204460742,-478.7218691425933,16915.735789732007,1730.0565418646704,1344.7367207822442,267.38299256417065,1996.161993468056,-269.3301063976566,16731.90092210406,1738.3350415189802,1331.1364230937534,276.05003989307033,2035.0804812667106,-504.7439639351021,16783.30155685646,1743.2359761291193,1338.317976614068,280.8355636134089
2016.0,-352.0,16728.0,1743.0,1364.0,312.0,1981.4732693472515,-307.4740869337974,16581.154676407743,1743.3098747797799,1355.6414291847702,323.2197032570928,2038.8059408281506,-266.18481082111714,16635.5900591394,1744.2725596850069,1348.3083557064174,323.4293166136984,2035.0883138554543,-265.36030520722426,16909.100937497456,1733.237292256939,1372.4332650031622,295.89155865108614,2045.7757315491103,-355.03965670636535,16831.221373628214,1752.545934821535,1367.2584935760985,314.70713401460995,2006.052890146696,-241.89993682617532,16663.906242663477,1757.754874012793,1371.025897001087,328.46449461222903,1956.3384703012114,-425.7306677848383,16674.019259017674,1753.7347792395906,1361.1540456323148,315.0273084022066,2068.14152456005,-372.46069572863735,16814.29773943675,1741.489852579791,1353.4326768565443,307.6593782497454,1909.0514230136655,-535.4829404909455,16668.82834156754,1753.1888464307165,1352.1370473629186,305.4185250076223,2146.8865023768894,-313.1960855304937,16691.505714631738,1716.8221477064424,1360.0720678274706,323.65515297393307,1962.7437742885375,-193.73206575346524,17026.83115024463,1750.2707623280157,1343.781785983875,329.89107910857336,2073.532350828268,-294.0661113748823,16593.272807972724,1730.7831472095572,1371.607507982992,308.51414286984186
2052.0,-268.0,16796.0,1745.0,1327.0,276.0,2218.5973471302195,-18.518466867604246,16727.194471820072,1730.3974751421451,1323.6654987526404,268.59100859109395,2142.93070867868,-227.87867250195416,16701.082205153893,1757.9316636522444,1331.4450380951878,273.5875265781651,1982.2823721950049,-330.74990009233915,16676.855410575732,1732.1321705378557,1331.808684457478,263.11082899887174,2095.169448023611,-280.9076648993645,16774.445760562656,1737.728374946191,1331.8892609525399,270.35090478892147,2107.2372067725432,-274.81293302683775,16623.31361147445,1754.6816356764668,1332.8910570501796,302.90012556075396,2062.1959777596808,-192.46850800201992,16877.395106843753,1757.5148600544132,1332.7861872649949,273.46646683639557,2023.4558695403155,-339.62442712641837,16741.984500636878,1730.3775211893335,1314.1855733662103,289.4815227678879,2013.2862186203329,-299.42331046106983,16712.36740035986,1721.2397471105917,1327.9859609689793,241.16618625877845,1987.5706475927586,-428.34472642652315,16781.442356656138,1747.9212446484423,1336.5000108562672,290.61412069067853,2170.5693398052977,-85.86734023816484,16796.725575048014,1759.689923758224,1326.3177235200963,274.84904473875145,1963.5390900539503,-57.13576263650015,16755.59267400285,1755.492138395781,1320.105854349049,279.1056247562525
2060.0,-332.0,16876.0,1721.0,1334.0,294.0,2088.4372081354954,-327.87453187089017,16728.457534477522,1733.6563016454538,1353.8329201059685,294.9837843821813,2079.9195022670438,-335.1824619204211,16692.242933396996,1711.7098121542936,1338.4874343443084,302.50377687088854,2050.3277212263915,-402.87000269156664,16949.80558949764,1721.5847014347858,1325.2336746957744,300.7856433858166,1921.567096770528,-268.27168236025256,16973.67177370165,1707.987927315022,1344.9029111990433,290.72101239801634,1892.8832974683075,-502.9220492677308,16708.990208994335,1728.9198597628028,1333.37391432881,292.18353427114783,2191.114396042668,-401.93149846242625,16804.524965366905,1723.221332747437,1328.2935569241909,297.42041163962494,1944.3466289242144,-345.1336480965501,16861.924001342755,1727.5360599347537,1352.6950177411727,273.09758636157886,2073.7531287331813,-295.0332551752425,16737.866854448213,1716.0766945597431,1331.0888401050286,289.02331705597794,2032.6586150029389,-472.8850886866674,16929.61264398087,1712.3329644801995,1320.3195465988654,307.64880535301216,1963.0279740409273,-260.5566822190094,16878.17731278184,1721.238059223386,1335.6263209500169,284.80804567063683,2278.2419109962348,-498.47799523421435,16859.214828629265,1714.6767873524311,1333.5372093156193,291.1400687725503
2032.0,-364.0,16800.0,1758.0,1402.0,298.0,1991.6817298029132,-525.8799496119075,16904.988092230145,1764.8016607104723,1412.0384440577657,290.7991241146989,1992.537070291806,-347.7716063964028,16613.35928756307,1769.821943411388,1398.7981045140407,310.2203295458716,2023.974628230271,-285.82766388670325,16829.83913617432,1757.800527392735,1418.973211750426,304.21574119265017,2160.903970815354,-106.14795150434844,16779.436922574652,1774.2774686811047,1389.6036845346075,286.81389276005393,2049.954216802614,-495.81622052416174,16823.17250489281,1774.4612834863244,1387.4480295617604,302.47877423603575,2055.2624303228254,-458.8392136564219,16864.729441084768,1763.3971143310218,1401.6271224845927,288.78255692560725,1950.8864954770343,-452.75115396006595,16911.009140193084,1748.6392972677324,1385.9828406880854,306.2902804177204,2120.3701223281405,-246.35433026756365,16995.389939617933,1754.7278238378285,1399.628958024543,301.2219335116432,2077.3251511259155,-467.7001801349932,16705.167464139016,1749.2641735767509,1407.7219500158524,302.5128714981579,2178.0719100825486,-417.86168621514867,16762.601482758706,1773.8802078409249,1401.7999240383572,290.6451135299611,1948.8245818612165,-360.5373119651302,17002.89162452596,1752.7288045040686,1408.3166112811123,284.7587385297771
2088.0,-316.0,16908.0,1734.0,1323.0,282.0,2079.179322197174,-313.6005017831799,16910.430541633283,1727.4243785383746,1316.2061059388532,283.0599584447805,2235.6293815509757,-167.87719662240087,16900.317180471782,1733.9139679000489,1321.0029659698932,277.1164430833349,2223.155449679295,-412.4641177479535,16862.145293259317,1729.5983975591982,1330.8106690089514,264.0862682410761,1951.355157505586,-273.55539647489337,16978.33161299544,1745.8081292244324,1337.2583942282026,300.0911771842103,2104.890650136806,-394.99865539571704,16929.058554343734,1751.095977537017,1320.7004990843127,274.35989119511527,2094.5123008503874,-232.9991242411681,16800.58173743114,1735.9827789573883,1310.1702655778688,259.85572141153693,2028.9033175264376,-333.0012718986427,16993.974832917622,1744.9388377642613,1329.7669173837114,266.772617033691,2159.86175956546,-317.28980265922684,16909.08731470824,1736.940324568373,1316.5054257801742,281.52443947123487,2245.293116230329,-215.09827161680374,16681.822028008773,1743.8434126619923,1302.8923126363006,284.58159716636555,2031.898571132685,-341.0801050447347,17168.823906411857,1744.6111804226746,1337.7051450805793,278.50183986633067,2019.7331187258228,-253.489397687633,16757.083844163746,1726.128391427727,1337.3774191358996,284.6725728691845
2032.0,-372.0,16888.0,1752.0,1310.0,296.0,1988.9044751636402,-405.93817318222455,16771.480401462228,1757.526851238816,1303.7495184915822,291.94822714679174,1964.4949550271378,-385.66672611777653,16993.12232061324,1757.0213554464976,1296.275762035558,284.19129076186874,1964.8551018826172,-337.8476260032248,16975.217506133184,1755.2745144416158,1317.7047569666947,288.03526759795164,1942.5638308484133,-366.86852664380245,16844.3530285161,1746.4483420010158,1310.521332524046,295.44035353227764,2050.4475828254417,-268.98779768121807,16882.463220302652,1743.4596822012322,1318.964312611451,298.1516578949645,2047.4041483516062,-419.8312616105869,16754.87562497316,1741.6067943433397,1319.1681240529283,277.16847037917887,2003.6176570153525,-228.304279477423,16991.331691243726,1754.7751278882083,1316.87920677863,307.23021186694564,2029.9447688075734,-575.9649738043081,17023.003247650347,1748.3368306515156,1321.157289634437,306.0042006339223,2055.9323900291915,-466.58617555992805,16716.672118190032,1758.6028947003758,1298.8018017198442,268.38106254064814,1998.2883273025548,-514.975289205581,16914.37065953367,1760.6414040395307,1315.3121555051814,289.8817696845891,2148.415238293361,-248.70176787800946,16691.702271934162,1743.2860698634688,1329.7416999314344,295.18960898111175
2076.0,-336.0,16896.0,1724.0,1324.0,280.0,1943.5795971213363,-180.6206692993309,16923.690622698323,1713.6978515967346,1325.0053051844166,268.9341147249831,2132.070709072244,-348.64200612003845,16847.221905393806,1711.1153592917524,1323.8469726886394,267.75225952787434,2212.4459787850874,-413.8096149941325,16862.44931303364,1723.7483699883123,1316.34654881285,275.4622899705014,2056.547315368454,-543.3502695764433,16960.50638589649,1737.782042630094,1323.940064372041,275.33505707921336,2145.0276750333696,-391.03391705331,16867.200260849095,1734.604479965429,1332.69686765117,288.9098893599455,2182.6941341944444,-417.70412383151523,17057.059383646378,1715.371255778129,1315.6006103769746,274.85822262668273,2060.2608575223057,-215.8382520789242,16863.98631548854,1715.4282827578024,1331.9557932973407,273.3940397467725,2117.5984909528734,-486.1758072558905,16797.512745614957,1744.561871744169,1315.0863112893999,267.2325967082085,2065.3943863906675,-419.17008960335966,17024.420137116984,1720.5431299807585,1321.7033640972754,290.0265593087222,1987.2189157931405,-568.945726006323,16647.04429460746,1730.8815642141417,1317.5825512170227,271.6582404934094,2090.2908477863057,-175.20468516129412,16900.912594671958,1729.0415837940845,1331.9144678671294,273.763692175793
2012.0,-336.0,16880.0,1738.0,1337.0,314.0,2006.0925772431726,-327.7699764656502,16971.26218816018,1746.6047693267922,1334.2790751898528,328.93953435573775,2161.7646220877796,-224.4645689365368,16900.117625184994,1736.7345834435594,1352.3511658686275,314.4890777554205,2023.7038615648303,-414.44336492964055,16804.378273711092,1731.5475363182957,1340.776698391227,305.3993936743285,2092.4079832220514,-229.67403279630423,16784.659673017857,1745.8558352971593,1339.273204607767,311.95160994097114,2256.147568636462,-409.1553353964687,16804.052046118486,1725.9845436717906,1334.4677495857502,303.14487116764957,1936.6901730207935,-402.588152367706,17056.876531103535,1755.4237045311456,1336.8045011854115,315.15786690871397,2087.5098509057966,-292.2527169967342,16908.157628589797,1746.7140733874423,1345.937623083416,287.0525780123123,2046.0208885152229,-319.27648714354154,16875.654104946592,1742.727165015839,1336.1345015564848,336.66016150466606,2039.7921750611265,-217.09988629164124,16797.048418384005,1730.9208956163855,1324.8557460131626,310.0411083601925,1935.0187209721914,-171.08877551272215,16978.442518319993,1746.2225715583106,1339.4496662809145,316.95119426309884,1896.6722817440918,-180.64000019586277,16885.222660225663,1748.0860949693042,1330.1379957666315,326.7427620438355
2056.0,-348.0,16868.0,1698.0,1340.0,299.0,2075.025541091849,-416.93986352334434,16936.48249148569,1692.4018804413513,1334.6593609579188,299.01784491966777,2097.592072592572,-541.7131359486807,16871.888303312375,1707.781735050561,1337.1833923919905,291.6583208161488,1916.1788203855615,-367.11790156209275,16919.268693054295,1707.9241187756247,1337.4287685929983,285.37231414373485,2007.2521747819294,-396.0546032873244,16845.46036141009,1722.072743944148,1340.779591436171,286.9837591908162,2137.8572096048674,-215.5709961285639,16832.513938443146,1694.5217727797653,1351.5547874921826,294.87815013842686,2105.209190344791,-159.84475805393902,16742.472653453606,1686.4739662314503,1334.9847800795574,313.1753809926357,2113.081151401731,-330.8275918668265,16728.42101753405,1693.4093419449493,1344.5426178503815,282.2006675179558,1907.2253536710195,-338.57053763970936,16850.592748925017,1707.5402131993817,1334.416428736884,300.3844982006585,1831.4678760723423,-307.05216343010846,16877.68529637889,1707.9852625196268,1340.9479567957758,288.2910018225696,2110.752702951577,-308.66096797944715,16772.59694088589,1706.8683608091915,1344.6157508990555,313.39207726976923,2096.22376995335,-415.30440155713495,16927.78539992312,1693.6057943218552,1334.4454252570424,299.652136707297
1960.0,-372.0,16856.0,1751.0,1343.0,294.0,1949.5090591561736,-361.7990211654473,16687.38215068711,1749.3476679855207,1325.92617129207,301.07696069271185,2093.9119098933893,-326.4915184222704,16837.52880301723,1759.7341742929507,1366.0313079641182,315.8850201003883,2026.1297973467788,-449.7558948961407,16697.20785965741,1749.7109335911248,1345.3576464276164,282.64003909558704,1926.5343693090117,-299.5980321461702,16855.732101113364,1751.9786657664226,1331.302701141183,316.0562182429925,2069.4182381714068,-250.70612952277963,16935.36802689354,1774.4065605452588,1341.0214861796221,301.92772760667475,1962.0207763246283,-513.6863951827366,16779.924250709584,1755.3035013986896,1347.8296307085557,281.2467502406526,2056.5515662807275,-286.26095205398326,17035.358485910685,1747.4461858999637,1349.462987660167,295.80332014785216,1915.1955988048053,-478.21408150481767,16946.27974045377,1750.910219059909,1352.2964424243592,287.6282238508265,1991.7665535713322,-239.15529179757894,16894.61137846847,1757.4102220771622,1349.39559653547,297.94542480090644,1811.0178071176579,-358.69652212418407,16903.99413497002,1728.1633784547125,1337.1586959476456,312.0956970592973,1864.265012006592,-423.3266070635239,16990.844136255346,1744.5646717779152,1346.091523431571,295.32923096020977
1972.0,-304.0,16880.0,1751.0,1337.0,302.0,1986.9904851633526,-335.44458548336195,16727.45310379319,1735.9978434619468,1333.3063710174067,315.68932192219046,1789.959971721412,-377.8980098634255,16950.35961112451,1731.668589104429,1348.4040876560587,288.7728504584179,2168.5875901894324,-498.27237800784144,16730.38748336768,1743.5952890635274,1361.5234837331332,277.7588685838902,2052.3796732021133,-310.3884720812173,16638.72310196265,1750.1444045897183,1334.8552221858763,305.28519227224143,1982.6819967460308,-262.7599724402147,16872.631844418676,1743.8297002575096,1333.3857480075155,316.4779772028246,1914.5236963194125,-205.791674264311,16805.723983884807,1768.1909447839444,1337.0908565761868,299.33414943775585,1822.2690728704415,-431.22680752388385,17065.43452539792,1760.5977191419734,1331.4924500392322,318.95503704093,1942.3340121854403,-351.16622512296874,16866.78379400085,1738.8147728333543,1341.7111764564033,300.7869407924779,1921.5203374910964,-235.87937665502537,16888.155027912406,1761.4890217430348,1320.5397307258797,318.97663002785293,1975.3463926605764,-227.6989122214749,16994.264385725863,1752.8698159032876,1329.8101908840918,314.0807795848032,2075.2177812039813,-294.9011300799634,16838.45297700784,1750.325263012102,1330.067625066944,305.8513435909501
2052.0,-348.0,16928.0,1737.0,1314.0,279.0,2020.6734105300893,-418.8443331060266,16884.741435421427,1729.4803589778314,1312.0528998296345,283.1203439114059,2098.024562432214,-288.7961655199463,16985.472250688694,1729.5970494598457,1292.8393119297307,268.0712663865746,2139.02407799439,-307.1466696019771,16959.872052899722,1721.9327862231617,1312.7155158265946,271.9521675439672,2031.268774874392,-268.1903161769751,16816.819264288362,1752.9955358115478,1293.9410721152033,260.9305546667629,1790.8803086494418,-536.832720658211,16992.642422088215,1734.1096526474466,1316.6766378085258,287.53486068350566,2177.340799714449,-367.01810826167144,16924.252102298615,1726.43994587943,1331.4305668241045,269.6429133797646,1988.6580003212707,-490.31065772063334,17054.37378501288,1761.8519950969546,1318.8616948114868,283.660169202206,2026.0319203289355,-409.6151707794438,16987.02232643464,1726.7480653801379,1313.3823710178237,274.99860792586105,2053.432499416188,-441.02489635126346,16983.726254476096,1729.7474119357964,1323.5855159369282,280.92129398812807,2105.366048482715,-441.23630575574066,16817.77561384769,1727.273607362285,1316.2470445971983,276.1280679632322,2158.66139171622,-431.5965658841301,16952.127610645897,1733.4513895936072,1308.684451165694,272.14115330018996
2052.0,-340.0,16888.0,1698.0,1312.0,277.0,2026.5896042195266,-366.82219523200723,16874.889243575868,1701.5455622153033,1309.2747654618638,260.27789247700764,2127.0975013188795,-291.29292094640795,16833.70648751163,1683.08954487516,1305.9824917123187,264.20979343729806,1890.8211298087117,-345.48758760917815,16785.287095511118,1700.4008617101213,1319.9743891374087,281.87112527391616,2037.5186603898026,-217.21128927140055,16889.383292351413,1690.5718057256463,1305.9396117561264,273.53467849547474,2040.2445915805279,-430.2978320562254,16963.308366047,1689.8961395997533,1326.256984852974,289.4220915284337,1947.5962583494343,-360.6541990865512,16872.95578433909,1696.845633964934,1305.210634823773,279.7028743790093,2185.930468281573,-395.03701345576474,16808.853890880684,1701.2212943926818,1317.5475379708464,283.0658729539113,2037.100646318769,-362.22793800796177,16775.005644445468,1708.0979851678878,1322.4981149080754,267.76594219887096,1931.1776751039508,-317.45620970292725,16911.332104453326,1693.1649184699647,1319.1524437506062,285.876164462442,2216.220103194788,-356.80109054462775,16832.069221910555,1714.4713363696867,1309.4304430690122,271.0022231917955,2004.7684684904098,-95.19281371616057,16925.519722468816,1710.4169341073487,1311.5278350163846,276.7667027236882
2116.0,-336.0,16864.0,1711.0,1317.0,309.0,2099.4533034371348,-477.5150230216991,16815.846292731378,1719.7053397442714,1335.0287177918567,315.440467774351,2244.0722052483065,-416.1752908559659,16788.975243105266,1712.6532954804347,1322.1196337707167,314.46615649338855,1983.7219259095655,-466.3091392220741,16811.03935209054,1734.786312642317,1301.6412541996106,307.19280947085633,2091.081873810747,-444.3970459031967,16988.652235228503,1702.462636818949,1324.1878016686637,305.4289796592556,1955.5117460668162,-334.6745419597294,16847.24439920296,1729.813377121404,1316.2022338081674,333.8484192662219,2105.732631660683,-509.90439445274563,16919.80121258081,1706.721827919133,1301.195901569269,323.3622218870339,2073.9761242575546,-430.6825984328452,16800.565600541922,1708.7054050078682,1287.9410343975735,318.03648275800936,2088.3419341437707,-312.5635595940946,16988.950228867194,1715.4568778750806,1316.898605020341,319.7824674397698,2137.4572578086663,-291.62098758016845,16920.81807122195,1703.6477197332435,1329.646604446929,301.29143311742814,2155.2131860537675,-331.82861899526125,16891.794707289377,1708.3764663462089,1311.3247884588586,317.8445579194528,2126.561566795369,-226.044495236169,16915.10253618154,1716.4915255380436,1320.159078814833,315.15794531605235
2044.0,-108.0,16780.0,1682.0,1319.0,270.0,2163.074986911166,-236.00482020771457,16898.794905609146,1682.828675301175,1329.1319958449621,254.83993045424515,1839.0344630449767,-35.5748172693051,16858.16260361075,1672.988867103243,1312.0187130092336,274.56956521948786,2063.390826294419,-59.54814901762649,16778.73260880718,1686.453475873438,1309.290059645331,278.93847480394805,1985.1971109664244,-205.5097552311775,16832.1630022366,1677.0464929206826,1319.2574141924013,257.6991149578305,1994.8528398045976,-90.90133266927867,16834.624380041892,1671.3009724539002,1308.1681459559945,282.04589110100136,1974.7368996902778,-113.9302943409718,16834.7111826619,1688.534774954981,1315.6410776237972,281.18642788628125,2318.6195084719825,-57.23602445489932,16759.703462570364,1675.50135620238,1314.4133845422257,266.4289409485359,2025.654389104439,-35.00193025521371,16795.194921856764,1691.5919086412432,1316.9113068422023,279.43955714505285,2143.5543298630955,-201.70512160133393,16753.621212252147,1697.8685871102268,1332.4041165619808,282.54385955524833,2114.875217217607,-223.01454903306615,16630.179310944397,1673.1902098770636,1335.021896461361,275.892598290845,1887.8647657339804,-274.58329707920103,16863.16444424231,1681.0331909071494,1323.4385000837465,256.2376879575415
2064.0,-404.0,16912.0,1723.0,1307.0,286.0,2064.144006967659,-336.8366391820504,16772.415530512968,1719.262308830749,1322.9420895740082,280.43974063905074,1959.2089828252253,-409.2851265248833,16886.59431733321,1737.6652581186543,1329.9141713879008,282.8911891175992,1898.3930552209251,-317.9151639111443,16786.950835358446,1737.03135031847,1305.4269527422725,285.35395805821724,2029.1041925953004,-479.70048890093415,16877.82186651936,1703.8193414168827,1308.2010017082364,269.92674806399765,2088.6405011724205,-451.6090708969583,16811.44289823065,1711.4737993878323,1309.620875795563,297.254174818597,2099.7685100913513,-374.8638983573445,16865.679096766115,1729.375982108122,1322.6059103018467,292.6184790601979,2112.007022816784,-389.25825814931306,16892.30272810558,1711.3709136882105,1317.679792409067,294.8794231229616,2046.4744164649358,-429.0054070834881,16922.013670474284,1722.9124204313644,1305.7337666852732,288.68483244932196,2147.4615346186456,-450.3870986280584,16812.420371203792,1710.5989007892294,1308.7324420608222,287.5210851728034,2062.6932845134397,-460.51677100301595,16900.388990854917,1731.9500911341781,1320.4442553435256,289.0569379230078,2156.797662769489,-322.2619733726549,16826.16781261253,1736.130387082498,1302.3933642552668,287.0226061940255
2036.0,-340.0,16908.0,1714.0,1349.0,311.0,1970.0082338152815,-338.2705694874022,16944.39571427099,1710.5934284695065,1344.0012831922722,317.7216792902665,1840.5680385953647,-339.4738796252789,17050.658880812243,1715.2484325676799,1327.5745551621205,315.6506420866987,1944.1614984766106,-349.407653259103,16745.85883203499,1709.334550160923,1334.0470600248448,301.60181685385965,1978.4471562425365,-357.5371250150812,17024.477549809075,1711.0558937671046,1332.1652037345339,310.7980704555923,2171.9185622034493,-220.89373776891745,17110.036241740803,1717.0610390973675,1340.1199146614022,325.79299063237374,1790.056615143001,-339.13435219953624,16814.85032939731,1718.317687508581,1333.8498847488595,310.1639023533111,1948.0069070534496,-321.39825605334914,16852.322913042415,1721.7888186050507,1360.3880765286708,317.55882057389033,2027.8937098007139,-332.8277647429113,16845.5520478393,1731.2992700962889,1367.7849602894837,294.4227510888347,2073.412558087361,-345.739034657305,16932.92117973742,1715.0102527246286,1353.9890129438252,324.3901017409469,1991.1494286050827,-275.5167770512101,16931.694427024915,1713.0766025402288,1356.348922562511,307.75902493123755,2016.4685196441512,-431.530922961658,16960.062246763315,1725.0520446833802,1338.0723732182844,322.74049983908657
1992.0,-308.0,16924.0,1722.0,1346.0,309.0,1962.1377666456624,-302.78406533823505,16945.396597507308,1724.724677979345,1353.2732202998375,324.38070322295414,1888.8144969639227,-164.3538326890486,16956.22691518158,1725.6475446982506,1349.32059836538,306.13766902449333,1882.382412688397,-140.00552269749,16783.68865488893,1738.2609866133723,1340.4348398108318,294.747539498828,1924.2320283966033,-499.3227817814036,17105.745958598174,1727.8904521607083,1355.1902942995494,291.124641806942,2111.100246447316,-456.3227127612122,16937.39825767981,1715.0778494263682,1344.0341200938235,308.46076641789415,1939.4323518012764,-296.09647235901684,16971.95859413969,1730.6729600184015,1332.570965364184,302.03447891915,1809.9829075820464,-134.2505788456774,16909.512481382804,1708.3429459934796,1343.10526291654,307.6633552951225,2016.6583677314627,-517.8957290441776,16807.18254213158,1709.4635343846287,1356.457561967653,318.93745900970515,2118.9092740156325,-353.37343323147445,16956.765471401566,1718.3361201255905,1336.3011231753262,302.58730244777934,1992.9828590232128,-300.7141519343491,16851.741366989463,1728.213956257756,1333.7244001283143,314.97061049077223,1857.7275748211237,-320.3591302616359,16826.81557230432,1716.6313277421027,1339.5909521287545,318.1286838957473
2060.0,-364.0,16868.0,1717.0,1326.0,296.0,2003.714175433039,-636.6255290692964,16848.468784871806,1706.4653146075134,1323.7465290249277,308.2120302913594,2155.4658907239505,-221.81558499972803,16896.932243930427,1719.9384143295772,1330.1988298969416,289.8459308306746,2111.4842679465014,-341.37832604047986,16905.09675666359,1729.2326372830817,1323.566025103945,289.94731950737946,2026.0607803528737,-439.2528739669102,16932.911646835157,1715.0613009111223,1341.1934339013562,293.94368740237945,2066.6189843867082,-311.637937883055,16812.242444549036,1710.9584747558342,1322.0936440600744,297.6796254993781,1840.7610355411914,-429.19629674825063,17042.342129560722,1715.637377803292,1335.9451119966905,289.9930848870291,1926.3208083139978,-348.2343724862647,16894.811879519966,1709.075008030432,1321.1258090419058,297.49507820792934,1990.0777983971288,-474.47746722686304,16885.613222898555,1705.7888549863062,1300.5430710955532,287.25577388334847,2195.878808226234,-210.89191188506564,16970.500183593565,1704.7459608524669,1334.5070359829808,297.1830420659462,2110.262872389558,-317.13636741951274,16910.006814794364,1711.7094603274677,1310.6939986471295,292.3200588844068,2077.529145314562,-484.3518553328411,16770.69114516197,1697.8286511812726,1305.2035347388178,295.11991798502834
2016.0,-356.0,16764.0,1719.0,1310.0,277.0,2009.1818357939153,-441.8678421836189,16737.548154746662,1718.8782330699848,1293.461858336411,272.80696502232917,1996.543735486255,-338.543479305643,16699.026928886185,1726.6578510652862,1325.5517928357267,275.6579889680989,2026.7113343054914,-321.47011292166343,16697.02015635384,1716.5123195247259,1308.2601961029418,283.0583416732128,1942.610387726423,-279.5962748238004,16852.56288064414,1702.5888991653712,1310.1024966416937,274.4892658388601,2008.7269516851331,-320.63217131669194,16546.827813198364,1718.1766731245543,1311.2673349939937,279.4315077494681,1959.1162598169747,-378.8099712422284,16922.607904566717,1725.2234371771337,1329.1269608901273,286.68510250634324,1915.0703856510777,-397.910435159626,16729.506990726048,1723.882211518568,1302.870012975202,260.10547979970687,2191.4029175430524,-277.844729219786,16944.91060557904,1694.070003741025,1321.3875202760164,272.00982674006417,2056.831611620826,-493.92325964191673,16854.127833759445,1724.1213122055512,1299.3602401333483,286.4519890057643,1890.915761943059,-386.9585945016911,16809.16779898922,1723.7461623625898,1312.2937501571244,291.25114581506205,2054.206403716007,-307.1324227678825,16798.07653712623,1725.0008978607168,1299.0634629699523,254.9189598696502
2140.0,-300.0,16864.0,1706.0,1316.0,285.0,2323.724415759875,-185.6298780779216,16941.40561696081,1703.0145760741314,1311.5878954342445,274.96735579260144,1924.2500028060927,-361.36626354242094,16833.60633788357,1700.5194625895426,1316.328766521367,297.44622084810266,2041.9763080617379,-277.2661019399571,16912.038084243697,1687.7159782789022,1318.0481016965168,284.180924241121,2181.1429362633257,-284.9102520713517,16717.29291945493,1705.1521308231197,1314.4627064598028,296.58474081874226,2157.9877254199073,-230.72027163418124,16862.686010026813,1712.6697200021051,1317.6715048928354,271.7596785572331,2085.235749884651,-456.4457777342432,16929.100794829836,1688.022517039979,1327.9728897291443,277.51129443825255,2066.761593149378,-417.9647224980019,16796.13295344092,1714.3786406438353,1322.6716457273915,293.44738592738497,2024.9628646698825,-414.1470728609921,16878.694320121926,1700.7473533811055,1315.7036666995184,288.1627118951385,2196.3340049617923,-311.6218635806108,16923.137846161295,1696.5330195328327,1309.483995238295,263.85661636217424,2036.1581234871799,-204.0629139752932,16944.87126777218,1681.1806921462241,1331.4738130347853,277.6663466308926,2211.5454205713663,-308.9064820927541,16893.428795530384,1711.9391993289726,1316.9008730593816,290.61093074940914
2072.0,-324.0,16956.0,1708.0,1318.0,312.0,2051.8540112423098,-281.257598671099,16833.820783878513,1710.3916113250252,1324.470594367595,321.79879322206483,2085.3651017471025,-60.99523889181211,17076.890017325833,1700.0855945904216,1315.2474120788486,313.787630616244,2103.8874796331993,-381.45619621136905,16976.156084704133,1711.5536828845768,1307.2817390386485,313.47065666715145,2004.5447291873734,-234.05166307053526,17060.658469881448,1696.2429494616201,1313.9970271612453,329.20854941625157,1926.211220925123,-438.36290308844235,17024.176317399277,1715.0564008643262,1330.6541269761274,317.1455680739913,2150.3985997960485,-432.66712908667574,16916.061711700735,1708.653075882503,1306.1827522027925,315.4898870533834,2165.890581489578,-356.6472517644321,17165.320239096105,1713.0401923689983,1309.8240861702427,315.8111154784081,2154.047299000608,-243.9786459481922,17052.584260728574,1684.325199648021,1319.7172197277087,325.6261979763818,2210.886937029094,-190.69368849466593,17164.085596321274,1715.5153862519019,1317.0695969056774,308.2669674192986,2090.1910930939307,-363.4001630647775,17009.76641725767,1705.7983488229274,1322.039859312506,335.1449701956139,2261.3006667200957,-321.43241989137374,16919.66238933165,1714.8207346389063,1322.2874033289697,320.9741096624709
2004.0,-324.0,16852.0,1769.0,1333.0,297.0,1994.3913614053613,-153.96282207386065,16718.85169921653,1736.4977674651086,1339.196608953467,311.3503114223109,2056.850750816096,-428.9049040795139,16749.330279696038,1755.566395681075,1346.1291432393866,292.3094978219804,2058.1713423812785,-447.5313829228172,16842.65642795381,1767.7480283260095,1334.3753738710209,278.364972351775,1969.9029547158648,-529.928810610473,16817.581265184483,1774.8642253229868,1331.3125347060911,269.9608192007638,1906.7552212121227,-126.79325342178203,16825.502398751614,1763.1700917162602,1330.2668485368115,302.1419169523717,1841.2101010047083,-187.88833587852204,16927.0540458831,1762.8557721990587,1343.5286541578887,288.65720774499727,1981.1680268423727,-266.05305239487785,17116.971492389617,1765.8383112506226,1329.6396951858258,307.83659495384063,2065.866409983789,-397.67286295399737,16831.37093026056,1766.2528308192632,1330.1357465489798,315.4971452302623,1843.4271309134024,-519.0028508672183,16837.50418717112,1770.3307040389368,1333.8981523050454,284.88243894850893,2151.859279668406,-221.25299367442335,16933.8048710047,1770.0607897239731,1321.0465759835538,279.38380914822494,1961.1811797024882,-538.628870257746,16849.926304031767,1763.1652304312445,1333.5180471131541,291.55075229232284
2008.0,-328.0,16776.0,1749.0,1324.0,282.0,1961.6606327544291,-292.3367337346501,16721.914545079908,1756.2063567745213,1349.9020771017445,266.41267424022794,2209.122900799476,-304.22931506121324,16754.06911218733,1753.7435828107493,1329.8105017497835,293.8645808071885,1948.2827561952251,-237.34403467270857,16848.914806770095,1768.128303570351,1339.0682144718844,288.03802827763474,2077.2056067403446,-283.22020320302727,16856.09105577481,1745.8571827716924,1324.8324362901253,278.86725808216795,2017.9133564437022,-381.5675936683587,16856.259649708576,1744.2962905915062,1336.583888230897,291.96578918988956,2084.100576653573,-241.771841872356,16934.60660902535,1760.5790829052185,1315.3668046401938,274.8406289137825,1978.116909735035,-318.9652348039836,16866.61615804022,1735.3124724312004,1328.7099473424278,294.52862807539816,2042.9748719505171,-192.71036567263675,16721.445193235955,1742.445746223541,1347.2867288014972,279.43488701850913,2076.1181934602364,-278.85679242781526,16779.68563720964,1749.7784551739473,1325.9835454862487,296.7390472495521,1925.452620631044,-318.15032016348056,16650.7723276095,1748.2173469906909,1313.6278630484564,286.00677416032823,2031.381830804986,-242.94973464383688,17019.987539377893,1753.853077548665,1313.7396649459156,277.28648823436396
2024.0,-336.0,16896.0,1745.0,1314.0,255.0,2050.823910134373,-369.6910079335673,16938.16375688706,1758.0138603081098,1318.6959891717631,259.7646901035198,2048.472197331375,-245.2987377323753,16898.25639199704,1753.768478924674,1329.949828023255,269.346831225609,2036.1419968958378,-369.2918852166139,16937.91938905361,1773.4177759063791,1326.891303373439,253.49658938516322,2030.4493531656092,-241.72364284658966,16878.64752083801,1731.7683161719328,1321.039345351505,245.87701841817184,1779.8398821677047,-286.3550689776517,16925.283968082185,1754.9306150481298,1308.4190118595584,267.00811633547835,2074.6120005034163,-489.7334951492461,16825.9928028557,1745.046721112555,1300.1757934975274,259.7964231372742,2016.6992031517327,-451.85455956857925,16703.56492544045,1745.6128693193145,1328.1062661812616,273.2618759536958,1966.081124519525,-380.4991717090926,16992.932462469584,1745.929166061,1301.4751466924877,251.09121863670225,2093.97054801903,-146.07667197517316,16887.094993109717,1742.3442296230207,1320.1306917160541,261.5699279025477,2042.23305685699,-482.8669352871903,16690.969699121106,1761.11265492702,1311.4053028560618,254.37977613857143,2277.415639878591,-487.8093934860701,16808.807388456535,1730.5864188605183,1302.9106553906358,241.93388299388258
2068.0,-360.0,16892.0,1707.0,1342.0,317.0,2171.831417432709,-396.24086014561755,16917.525448099383,1711.6765325988433,1340.3102832532495,321.475548628112,2180.7072296722927,-264.6540814817645,16883.24301927943,1704.993634932067,1339.0720202208395,327.1137971958658,2133.621175760053,-447.0511236156766,16850.75401598902,1709.1608457984778,1344.2666364545319,323.6740845256852,2050.6592416766107,-419.26714806838146,16834.991717303332,1722.5143764562852,1355.5724884659123,317.21619270620124,2274.9473112012843,-459.5953859177644,16871.165624832607,1690.141834722526,1339.323483995961,311.7954024578283,1898.4878116520722,-309.7583537278405,16913.642620871608,1717.741144455575,1353.6365880595586,318.9517792458166,2015.3938030395873,-290.6266610853132,16794.188650300373,1682.3504891068278,1351.4597707421997,333.9797846570785,2214.161030408359,-404.18309241887914,16924.228988308718,1723.8300375995275,1351.7498577526253,309.9739803688905,2252.49556941021,-585.4033295578408,17077.514204558578,1705.213928080722,1323.520826684242,332.5462581675878,2076.0735073318056,-412.87994374805464,16943.932630132167,1694.198010339281,1376.7174865314666,300.70099734480823,2095.375714631005,-344.78976963184624,17021.570697092095,1716.4668298335134,1328.070930197158,327.64397220212254
2088.0,-344.0,16932.0,1713.0,1348.0,306.0,2047.4737762546558,-373.9947984866913,16911.561610285902,1695.1087449827646,1352.3764366259113,300.41698883661525,2159.8921927058364,-370.1931152498187,17085.656582774325,1717.1952210630334,1354.4514688636948,300.3751328658374,2071.796031235274,-401.6231886263286,17117.601985234316,1703.8583341430895,1342.8081318455015,293.50056754856865,2313.119241155468,-210.43048724068467,16947.619868764334,1740.601945417114,1346.683778116644,327.0872415659381,1878.5089196138756,-265.05056011834,17058.666026028546,1711.575207584012,1328.180536043794,307.4690654691391,2270.3170833559816,-308.24917196288266,16914.189654157984,1698.231505219315,1346.6395606998672,282.3827956336247,2096.9219599648277,-324.0095260570593,16925.083405482244,1702.4521702698505,1342.0697201294915,296.05113671136496,1894.005006453273,-501.66365715128677,16792.420795887258,1735.7532173883478,1369.8316109796276,315.2102778703879,2064.337739911526,-318.37609331076516,16842.110796088553,1706.6495069562293,1348.8257632433192,295.4107183271813,1907.3006497031508,-320.59200306051275,16850.05000264779,1703.8906945235324,1342.7884751809324,313.1083466630664,1988.3683258697245,-258.60021578888575,16885.426426045215,1720.37519709539,1358.3789619449328,310.42250025878735
2024.0,-320.0,16900.0,1732.0,1314.0,286.0,2078.1317233915815,-233.96157489646845,17000.970828994108,1725.9617247588874,1304.155263108189,281.46707195082206,2106.492298071516,-161.145834387163,16671.93925967857,1733.9595741796475,1303.0636098168977,277.60996781348456,2113.1127563476766,-261.11471985269486,16863.396575406117,1741.7490862143736,1314.0285900577574,291.03159736185967,1999.5389692191332,-173.52472884399825,16808.77260698978,1736.0383033477888,1302.3080772082183,292.1467047501501,2232.0183694921643,-181.50588382581634,16649.605771869028,1722.926051437154,1302.7035544124722,299.8336222951134,1908.9944868545285,-307.80694542872163,16901.40150470528,1727.01821908768,1306.8676722574305,287.89776501752095,1910.046288734515,-492.8816255970578,16865.7841085404,1722.975501613817,1318.207964847498,291.4689250254504,1970.2595214231992,-399.2089169838279,16783.90435836499,1736.2618587013148,1341.2283836720117,272.1226453280758,1977.158935850884,-389.43497733520053,16812.24903522296,1727.7560143869182,1299.7866896777862,286.4142441086647,2067.7906629167956,-364.46810522132273,16769.346842865383,1712.1507855237123,1309.7183409498336,286.2309994339609,1965.9177792372598,-367.1285408397953,16748.80879482687,1737.5919048661806,1319.1423282711394,287.25769486082055
2116.0,-336.0,16876.0,1726.0,1344.0,291.0,2168.9355666049264,-297.32770207014113,16956.996955146315,1726.1132398719167,1360.2084533875186,298.8425120858721,2003.5153318933415,-356.9978471100867,16955.925997834544,1741.3030683555428,1321.5170101127537,293.28748128097124,1937.460410578014,-260.3983327937078,16737.80941572261,1729.604124749783,1332.6704033168808,299.2244075272186,2139.086389295455,-55.07356111314692,16631.356249131084,1721.4651788489782,1353.4491270275091,294.7779356933413,2096.558312839523,-269.02674467109443,16907.374039421164,1734.5210522654531,1353.3111084908933,283.4001801688623,2107.206383300676,-305.78246554523383,17073.938925708924,1738.1351295147715,1346.275520171233,303.6270250551945,2093.1772246705614,-360.3499508192141,16777.32389690901,1724.9624255417818,1349.226130582076,281.39327331834784,2144.8622238838584,-342.43652845161733,16790.586510094574,1719.0086219955763,1334.2826512589968,299.62414135666916,2196.16325681925,-305.3506652832779,16868.18186976237,1719.8702044014535,1333.3362741658696,299.2270211259474,2180.890992681373,-299.48012069444104,17025.780117744143,1737.6616998429956,1350.220660273536,307.8174725020493,2192.517499322291,-524.1755951291466,16986.344096899582,1728.362814825167,1332.3232862367388,290.01895393115376
2076.0,-320.0,16812.0,1742.0,1299.0,299.0,1846.7183050087654,-394.41291731822685,16687.97805823342,1740.1900818347672,1313.589804307153,299.05666689924226,2083.9705244127854,-197.59224940398806,16821.418398020138,1740.1978185208511,1282.4312469851895,294.9948023264876,2191.1185257707984,-161.15306313705258,16670.934422778922,1731.2894732656268,1300.0005842790663,300.13891056859507,2073.438799842205,-177.0168587416565,16571.43538279122,1729.735910713249,1300.7469380993605,308.0110673910775,2049.6533609781527,-401.1736933073573,16802.028633229682,1729.5728362934415,1304.0757365829525,314.5588851773628,2093.8531923770906,-271.44253632718454,16720.043151643174,1740.5003079706573,1300.2373796640288,301.17905235687704,2056.5064340618105,-159.58869483590416,16808.94928486962,1717.3694302564136,1290.1803238942255,289.754448883979,1979.0301378613692,-308.74833192535016,16996.63788555895,1763.0932177543157,1295.572117737918,303.0489738455438,2018.0392781634218,-389.63828804197095,16895.752633870918,1724.2442515504226,1315.5792323970159,287.2694064488114,1990.1868467638997,-387.91636133493745,16931.536689791636,1742.3025621825257,1288.2874337065987,315.29231358295266,2018.264903768893,-351.26064661026857,16849.198605375997,1750.3365690389728,1300.3489754938298,291.5366525054614
2064.0,-372.0,16924.0,1780.0,1375.0,311.0,2092.7766117747583,-275.5987927917738,16998.140459326267,1775.4228996885809,1363.3217224918837,304.0923627919005,1929.170745597182,-414.4836925528843,16738.880906464277,1786.9934723054128,1368.0196060938417,308.5545909989017,2047.9926428266974,-341.1208658572659,16904.70005845373,1773.7539260728943,1367.814485403605,303.09744738895347,1898.9421746764854,-294.13849717947335,16845.43390376651,1775.3717742647766,1355.0498975792245,318.1675511611217,2182.156446967118,-277.5391010142527,16988.717577703326,1790.9196462227071,1376.9791306539082,307.9661384439814,2117.043806271176,-440.1835492636753,16932.412695307943,1761.4783803150383,1374.1776944522644,317.03188512421264,2047.8892964338831,-221.01024319579628,16894.640689954107,1787.1269602897255,1367.5710797225584,304.0651039514834,2201.503247867024,-410.6250522623882,16896.515895401702,1774.6192898741879,1371.5019248501712,308.84723100772317,2121.16002788519,-220.21798702837083,16835.232423909187,1767.6629372656623,1358.2370717355034,325.1950325250594,2133.6792408320007,-483.69862267319854,16823.578035854218,1786.546760874332,1385.8930212049995,308.24805635829273,2040.3340057128355,-349.3440133390652,16886.990929135703,1774.7304663761954,1364.4700455870288,306.99099133382214
2056.0,-360.0,16928.0,1728.0,1327.0,276.0,2288.3389159823864,-259.7762732118998,16878.215912189567,1720.5368968471992,1319.9948865505344,282.6462597114684,1871.7234166450426,-365.15526478890814,17003.12648377709,1720.3644026927298,1318.4775404906268,279.4504050388607,2194.069708384278,-187.1907023614965,16869.175046405955,1746.5244196851902,1310.6430757478108,287.65135004599307,2064.454496126659,-398.62250714795175,16884.34594286392,1740.9052769149691,1317.5426757673254,273.24157469033446,1943.6980933022496,-365.1251715572998,17047.50836061512,1734.6128254566254,1317.9219659667724,269.9061251530456,2002.7666715483633,-269.5990911955281,16961.86274807652,1744.4058346706056,1327.3907724921712,276.51924276783075,1839.5655518101062,-339.7481574547524,17022.691287659673,1746.8528966666236,1324.823196629559,290.3582225013864,2125.855460686057,-304.08416922137565,16716.724755846717,1739.3616486974643,1336.0637475093322,286.7094616691454,2054.641528768967,-279.7845950155495,16875.285740428855,1720.6159884815959,1332.9493376617859,288.57565149123417,1972.6503198464816,-351.5108143301726,16810.296125640605,1721.1916976323973,1327.9662479618644,289.3999067158103,2218.3274668776216,-393.287756579166,16853.032803869002,1722.6424040117424,1321.3737393991598,260.112294769018
2072.0,-268.0,16920.0,1739.0,1330.0,324.0,2339.6760578430294,-308.7595138523346,16731.875307835293,1747.0487978328504,1328.3905713515621,327.5604121168994,2143.616115639178,-191.58437609911812,17064.053641352286,1739.106226276015,1334.3971665486995,309.0440120122373,1995.12541399755,-315.5189968277594,16754.601560693107,1733.1719158628205,1339.9911316628054,330.9357824953135,2098.2005740667832,-244.84149946022032,16750.74319124119,1731.9102079569998,1329.2834236866954,328.836056279178,2088.4673273491294,-284.3944097872244,16808.50639156843,1729.8526810170038,1323.8669286882857,305.6629316260552,2020.6900133745348,-143.3574233415899,16931.371588226943,1732.235787577294,1303.824090625919,339.71111652437133,2012.2946287469301,-339.19018832656195,17013.287830433277,1750.5554444644183,1332.5766557129195,336.4553697645044,2016.319049847745,-354.73233744073997,16848.66634526941,1760.1338101375025,1330.493270339697,333.9159293975952,2050.2401074563336,-334.65402819203115,16926.510621705816,1743.853918305964,1330.7345796523443,323.97981575712265,2325.1408968837927,-321.2048877857711,17041.782728635517,1738.9230895137737,1338.0987829631124,312.3657106017902,1930.7142376951977,-235.1084255647319,16985.042235131,1728.099211110168,1337.2501292995146,315.4182877573259
2056.0,-328.0,16872.0,1746.0,1343.0,299.0,2065.5968121755673,-326.52161859979253,16865.203875454634,1749.255700327519,1347.0781749483656,304.4264121795909,2055.062793337886,-338.4097085209704,16932.256834939126,1747.1235709365058,1339.1196253041091,296.38756141883727,2036.0597714063103,-192.84790867339944,16897.953493803816,1752.6563776686612,1355.448318013985,298.16617740622576,1950.469288281428,-342.5955938815762,16929.646251750622,1739.370816958545,1334.707292906161,300.3952112882754,2017.9151027647308,-484.3817294512718,16780.7659945098,1735.1041659558043,1334.9201436240835,285.2435707324444,2146.980398508956,-343.95079616376637,16682.3770517993,1748.3305145167203,1346.1260031901033,289.63986423012926,1972.9672705529938,-462.12835484111173,16774.077487622577,1727.4717386697564,1339.3138389796563,306.2597988331595,1982.7195071425328,-181.70989785975763,16900.149220082898,1733.7360370371382,1339.8878567615156,285.4205468643127,2199.0160673175346,-404.0820853664712,16820.589246099833,1737.8015666900128,1351.5249227724662,287.08932622688866,2224.399193034758,-167.36324780835793,16915.354227131465,1761.548431768986,1348.0896570842738,311.1108283302905,2019.8203822898222,-469.3402187350047,16805.75741950273,1760.6383974978462,1343.2573189863826,314.91732969946446
2072.0,-364.0,16828.0,1747.0,1352.0,315.0,1914.2534613837813,-462.16346687013385,16907.304568432668,1740.775788902328,1355.900743265047,316.84011432162134,2131.0709732141527,-318.8766572865742,16802.61992324187,1742.4774747942495,1357.2463496940534,316.20782641683553,2052.5180051857415,-299.40452983958966,16841.265152511278,1750.2633527956345,1361.9440057140625,295.08636862515704,1993.3984914275197,-406.36987205885896,17052.305527182107,1723.7652585684575,1353.6416202273908,318.06998998575943,2071.664748436913,-226.2574136966053,16740.41881412742,1750.3956750276143,1350.375257003887,310.0087034124881,1954.1301099674622,-326.9890122161636,17039.755847178243,1746.0428517553191,1361.5707366100041,322.72317551384293,1952.0028773892216,-380.10325458023596,16943.826922341956,1758.5016040705282,1341.6691245716297,320.23261110756243,2122.3964428900185,-545.2554906330079,16823.597971067415,1725.81220103201,1348.5986793452662,312.0736583416315,2095.8558385686683,-506.5680288873802,16940.732355603443,1762.045825933829,1349.0192113063626,332.7328762431984,2200.827400322695,-445.06533557405976,17034.58149247222,1753.0885598572663,1338.6814063206803,319.67671875816694,2002.1415078634334,-447.29087536474026,16760.71390579816,1754.9832111918204,1353.057031431704,308.30464045625286
2060.0,-372.0,16924.0,1725.0,1313.0,295.0,2001.853921062085,-296.48197477855047,16718.813744980933,1714.7843982259408,1298.8526375361619,295.90480773017947,1967.8510559204403,-434.9233806358522,16969.02780567457,1717.3112625348012,1320.242081963692,287.15102812033246,2142.601899148857,-334.81368429121153,16954.154793548332,1719.7591876679303,1296.4187331346534,296.0613900696343,2042.3286944998083,-273.1485090260783,16977.391218316017,1716.2528936772235,1305.4424934266208,308.4095365717484,2148.6564203609646,-552.2549370091189,16953.150681442534,1716.3139936883463,1315.8037440314802,298.2670575330257,2107.1069505924584,-254.4004269012497,16862.55668889216,1725.794041611999,1316.7243254988157,297.31889708625636,2101.8553531068656,-333.854371886056,16854.688421394927,1728.225083933616,1306.8173390443274,300.16157889855117,2050.191997620264,-336.4259484630684,16903.73323410676,1726.8684905522398,1296.3856437489646,287.4278782624423,2133.80898840491,-318.4686659406789,16803.23979956449,1728.788481814308,1306.4868226345243,300.76887576357456,2015.7858266453732,-462.60808238061657,16935.795333659764,1740.779014214314,1314.4765502745427,297.60889909918086,2024.0924016872673,-592.6224784491686,16978.67508789096,1724.6020728186145,1303.9383258406026,300.59029143524117
2008.0,-332.0,16912.0,1749.0,1342.0,304.0,1947.6351907631,-383.0207536444982,16837.455470028806,1741.1835731431556,1357.8906899971682,308.6806068649801,1903.6198745454851,-283.494133234729,16832.778255559708,1744.2224405720785,1338.9656430492928,293.8956962091506,2084.8063876954657,-252.80449755334246,16856.187197789914,1753.6279839041458,1338.31895530809,322.8491884267081,1974.0498278648515,-330.4618311355113,16798.727872464966,1736.3184056538698,1348.6161119977392,324.86961993276054,1817.1400311711268,-274.9009074350237,16997.411793595627,1746.5428616303202,1338.9855860850314,311.64254141549276,1902.768918826397,-364.97713704449325,17043.38767803249,1752.57879082012,1322.8533524899215,301.26503631752803,2221.699854321531,-210.18456424239085,16791.514498918754,1746.989642346379,1328.8451477124695,298.73145407423254,1929.1578523802186,-277.42525914770295,16835.471133941144,1740.4258489230947,1351.8389965853642,310.91182602373243,2087.3104065505336,-395.19227390959156,16999.888423794997,1750.3868980979,1336.5033559114395,303.308794940721,1968.2619056277124,-319.90042729910255,16966.575835370142,1762.5252824132322,1349.2134749495203,297.09240351453013,1983.709196036764,-369.60973087886043,16804.587504986084,1732.417377018525,1333.7303497634261,298.63263704670874
2024.0,-328.0,16844.0,1721.0,1315.0,276.0,1947.310349262181,-260.54451965480916,16727.890269503627,1705.1905565594784,1293.2257289237036,285.3069544341562,1989.980166867464,-508.1652612199064,16845.193566388167,1713.7173424308526,1324.1389795429945,272.3607823963656,1889.1909220883708,-405.67217728740553,16861.176437985112,1722.0182785192437,1304.46928015014,278.01806364007064,1997.5873141908392,-175.07542381189182,16847.65144123449,1717.0099266695245,1319.4497404621045,277.67738970554086,2119.718344513796,-123.95763858057859,16756.796273345153,1728.6724503136113,1305.404497258819,272.2066174207392,1887.0713603179163,-445.8472780485922,16864.20752991698,1723.105673341566,1304.2877624718296,275.529115538398,2058.3043438410514,-420.2134564029976,16780.81400435397,1716.6168994368313,1324.9810827991646,284.45360311400066,2045.8699409769251,-373.6767732996802,16717.44106916827,1728.008895014849,1332.5849280113848,273.46486972023007,2046.6574328465033,-145.5868051917296,16835.519528850375,1703.6634865699268,1315.8827309923736,268.67560356653877,2106.100723549491,-272.64484270812824,16873.395285315004,1739.900006859326,1334.6092192053693,259.46361373685835,1963.458206328105,-461.5496657475395,17082.312647185994,1713.6741174729655,1310.9616816408252,281.52425206493575
2024.0,-380.0,16876.0,1726.0,1318.0,293.0,1889.176324771456,-344.2492697568932,17009.97146539331,1723.6911136341753,1318.2232993139103,280.0528483741588,2024.498458246262,-489.6597700985002,16997.483497584766,1738.8410398267774,1327.6368347139612,296.48793658174316,2017.0753693960535,-288.60257773600415,16828.758898410397,1723.0008126079065,1309.425687105514,290.85940942282963,1826.6055366355636,-220.74695233387095,16928.80453706358,1725.8703589624395,1315.3332763063947,293.37392299585395,2092.487422136112,-446.8183646738163,16901.225078406656,1709.8068847212844,1311.5526261939474,295.3099291734051,2060.0583550576753,-442.7133594258843,16899.726174091422,1736.6472231607102,1324.879712495398,298.1610889611162,1917.7709731611865,-535.1361977392156,16864.79654352338,1720.7754397071305,1315.539268803431,291.2010078871208,1914.8378528654637,-367.800726494276,16835.177473476946,1740.0974885302119,1320.4102937836647,271.45605816365565,1900.7960428814729,-350.35820076022054,16879.76129132413,1714.7894341539193,1296.637566777102,290.1342214256256,1796.3233640903948,-403.7123213538626,16838.610592964513,1731.153593098044,1318.8020923343956,296.2772730237846,1882.0545116058079,-371.579290553264,17033.23577435984,1729.7866198544061,1317.9507426876194,302.9635005009052
2060.0,-320.0,16840.0,1700.0,1327.0,304.0,1927.287451744843,-399.7163502366859,16652.109155511505,1696.00301309746,1337.1658014496027,307.3818368523342,2128.646267790184,-333.64022708690015,16912.731823882496,1683.1564574561999,1317.5193822164886,309.7831352178601,2106.6122804027573,-307.97507042885593,16695.64234279575,1679.2786032539916,1333.3007555825102,306.55964954217234,1970.1465721145473,-111.78283152671284,16771.233796705244,1713.8662367259885,1328.14098230913,298.45419403109463,2049.388940641762,-158.60336150774035,16861.10263888915,1709.8830107481472,1308.8088852911862,308.5661686660079,2123.4237168742366,-225.5359368409638,16705.50903760032,1682.13967790864,1329.506439452149,293.4012229002748,1913.5200008248125,-357.46529960995633,16856.889916175627,1702.6936272019548,1330.850012355547,288.71383252428,2034.3160936556221,-169.94336003464244,16659.29878077544,1707.9848599733916,1344.6949987946832,307.799448832745,1931.185972897596,-377.3166287214049,16909.173270014508,1697.4279690897802,1355.5617323526155,282.9935807474544,2285.251711302888,-356.5778630444744,16691.692628618883,1700.8865587474008,1317.4460751393015,298.5134631735432,2020.887951893987,-473.0451179697162,16807.72743684781,1706.7291760531018,1325.4156282220376,300.2501111639991
2068.0,-360.0,16876.0,1756.0,1365.0,283.0,2163.6636790851576,-426.6041923102796,16923.102370942815,1761.271750358549,1364.5075301904913,288.8191638110592,2144.403995462906,-374.7610223660984,16799.71771311428,1767.87547516697,1359.9994465971345,284.6381927497183,2179.502930743402,-532.442205853295,16781.531311166236,1751.0366872623506,1375.2023956318717,289.2740478334308,1997.9929634295952,-265.6147618221439,16702.434865386625,1765.377975144006,1357.0162342727094,298.66793475105317,2212.477979162473,-115.26419875239935,16881.160215664742,1745.9962908624843,1364.9962164658812,287.7882385704371,2076.736166555227,-440.07947390354457,16849.98904447514,1769.7324777637994,1376.1361177393123,279.7032433635703,2151.943865452169,-162.22169256442183,16917.78139067263,1745.9858066637298,1367.2877107322033,268.80273021558526,2161.8063753048373,-254.05242187127394,16954.381519256443,1761.8993828339253,1359.5245740523724,314.6434393197158,1940.4993634314853,-275.8852507840895,16885.26449931849,1762.9950066937517,1354.5120992645618,287.4630855575723,2039.0097626813867,-488.35895396870256,16943.73152088064,1758.2526517177855,1361.9106558330027,271.7205818480405,2082.34368141935,-327.8821225119888,16867.559178352705,1756.8507732313894,1367.3033349905907,290.9927950587057
2068.0,-264.0,16864.0,1741.0,1348.0,312.0,1968.3230537346562,-390.1613300995501,16764.327211644246,1734.9913503302446,1333.1580551338284,317.20181158793997,2051.5641880733792,-312.2023811631712,16806.621277867256,1736.5119203187855,1349.6182740652198,317.38846204420764,2292.9904276272027,-272.39563092093624,16901.42933789363,1735.9688815829688,1358.8898343942828,288.67667795051796,2123.4082288891505,-412.56661769145376,16973.658454287797,1748.060586589338,1333.4894785473996,307.4970410668087,2162.4617846815927,-418.7945407977329,16703.622622060848,1736.5763332648262,1361.9879541201594,309.7991377831302,2050.539928130059,-289.51854159040556,16808.19075580169,1722.4625483301036,1351.5661533661673,310.61648859507477,2091.6747562192845,-369.703887480024,16859.301246325573,1728.2945907674566,1343.0771006905811,303.1652849637451,2078.0441884903234,-369.3369806714623,16946.395675509146,1739.7034419612485,1348.8218972813804,299.82422894897127,2184.4276778844087,-441.2561399306434,16979.74509904668,1719.7336919565046,1354.7429459452394,324.7584903890899,2181.042623855317,-325.4448353841878,16752.513268197286,1724.8784205827212,1344.4248838366873,317.46130219831315,1883.0002473003626,-215.54015661000088,16756.148219168535,1762.134990189598,1334.2316173443528,302.202027315396
2088.0,-292.0,16796.0,1705.0,1303.0,289.0,2205.4291403815205,-240.0434880673287,16746.801361873087,1695.3452569452102,1301.499537587221,290.0542851739345,2108.6619509220936,-291.4319622524756,16714.81373088216,1708.9056940116095,1288.9163347604642,294.56917347700096,2119.892672443767,-377.0793599018766,16535.60184173768,1707.418864528797,1303.6905774390762,281.31552230852805,2117.713128121781,-353.3665539569969,16758.192520255765,1705.8846992510037,1317.6792146380712,258.4499126734486,2169.8352271511603,-405.94932564154124,16794.919189504682,1702.9610061177527,1300.5652796947506,273.91556659463544,1926.594286669736,-326.4229586226177,16704.320798465214,1721.4017420058399,1299.0781389743586,296.98223044207225,2247.3042244330886,-327.13218867305187,16873.69318583805,1711.1341242303192,1291.9008549635428,287.98516575838676,2044.303134478302,-199.93501432191263,16827.7833218635,1698.351059676144,1288.3759437504486,293.9121941709415,2197.6378131927568,-463.7651637303959,16902.425352936127,1699.7430629363762,1302.7264871530413,295.09594524735087,2245.9955111931126,-113.14527132447282,16727.95259179836,1704.855305047222,1284.272818673345,284.85062197156896,2038.0980457950293,-369.56147034347305,16781.927565187983,1695.5390249591176,1289.0266377076853,277.57462890652795
2052.0,-332.0,16936.0,1769.0,1327.0,311.0,2044.1091867573407,-412.03690620558854,16965.281950878783,1767.2838005463736,1320.300241634767,322.11289799954784,1848.5995056681409,-100.51398511497715,16812.485462596873,1784.5867056785214,1329.2076793426165,312.9090570579496,2123.0648705930475,-321.9066669301939,16829.497069272275,1762.0910802110452,1324.447151735215,302.24618166894925,2120.038364732243,-254.38840587660115,16833.772955855726,1787.5768852888827,1321.2592734582017,317.26329572316337,2276.7565912937375,-295.14915722792523,17089.461468496545,1758.1405672281276,1302.0468122248853,327.49099262899813,1881.4392233901551,-329.2204745219688,17042.488912808258,1766.2915388977692,1318.0266449633891,316.2595815857542,1989.037831116434,-325.13179598248024,17004.926046977573,1787.980520421663,1338.8532262520425,290.642300633289,1865.480453371081,-259.76036559536124,16808.924334656916,1756.660080685606,1320.8781035746867,319.0123428195427,2130.3514237130657,-507.5653614513567,16911.444120805965,1772.1278110370229,1346.0880918541905,292.27627477794647,1988.1617335768835,-288.3622546682264,16829.49897071773,1751.3312997493538,1345.5740916107866,318.7422069421301,2138.1272201373995,-411.02615875052317,16769.045007915196,1757.5454567512736,1327.6429780043752,322.11677467616335
2016.0,-364.0,16884.0,1715.0,1318.0,307.0,2237.396122895718,-129.38535957034713,16879.142563490284,1711.5149575550665,1312.053026020414,305.5814407653205,1802.219988374937,-234.2637621965152,16979.872947973945,1716.081428280611,1319.253743845511,295.3411207836501,1968.4893527333008,-206.5315737716439,17020.317923771996,1700.7121665493544,1319.4953580838335,314.7630013377212,1953.0469342242666,-459.5316741483259,16832.830742046757,1710.2892590071478,1312.878269092585,319.59609761275357,1991.5514743115193,-427.63487347432493,16972.14340264937,1714.4757961547457,1307.665922802964,316.46935587728103,1931.8791019761466,-441.0859613396716,16847.04882422328,1703.0070211553748,1313.5702284717845,302.33199290020355,1992.752605666464,-341.46971795591173,16942.21736010367,1718.327716546106,1323.4377080037764,329.347574873067,2003.8509413593301,-329.4524748965826,16687.550268200644,1715.4524883993136,1313.9033345610549,328.2582314362382,2056.4526207141894,-457.689441070591,16930.912042131975,1704.949341018741,1323.2839228111102,306.15145202294644,1906.211489956369,-407.95551692026845,16970.30612004869,1705.7770133975846,1302.5095722074975,306.5966266242785,2040.0840033481234,-392.26069993113225,16780.47809412541,1705.7669008285682,1301.9571852357608,308.54459280255406
2020.0,-360.0,16796.0,1738.0,1304.0,309.0,2023.3571483898656,-558.5091711996602,16717.985887516552,1740.6170339516214,1295.2247304213488,303.7091629817525,2164.3110642782167,-332.5980366905377,16905.734403079332,1752.4763851942982,1316.6535919848993,287.31599084609456,2128.0363551939417,-463.13366007868603,16792.63328191592,1736.9526647093337,1303.4412628276264,320.01575138174127,2030.0847299418526,-443.4271656692418,16950.541680347098,1733.682764877756,1306.114943767458,323.00061635603583,2146.238051870993,-252.11891997453262,16900.24795338022,1738.5720762909236,1292.8713214226243,296.0963554478854,1988.5938728345882,-576.12740595223,16887.703706587552,1735.2299964877395,1284.902337134306,299.04532006000323,2129.9879353012348,-483.11844454216987,16919.405102777037,1729.522683759444,1304.2558702618367,321.2540952583176,2037.547114576997,-540.0909690991754,16771.50023650969,1744.3072057839179,1281.2900553437232,289.6111170899141,1747.4876844747919,-353.29655019014257,16752.101699941035,1740.9414391581463,1296.596815148895,314.63558221077403,1848.3659475131328,-349.59396547271115,16851.076211286865,1714.7999487929194,1299.138790766702,292.8966019864218,2183.7937138388393,-277.24562964490235,16738.431015422073,1735.6524186790466,1319.1650508258901,286.18025837961255
2040.0,-348.0,16872.0,1716.0,1356.0,282.0,1998.6769798946473,-458.10004222554915,16881.312158625788,1722.5391996830358,1361.3794192455107,259.43645749064484,2135.2430106102747,-430.208071097113,16926.262225971102,1719.7341417901746,1341.7891803523034,285.3967961616999,2148.339713887093,-408.1069747652748,16969.62318805284,1730.0876886421688,1353.5054744739145,298.7679817119178,1977.7733568650963,-380.12425041535903,17022.62390090889,1719.8704088066515,1367.251140633935,279.08245035667807,1984.808306012706,-409.31035798605654,16917.880602225487,1708.847755277044,1368.1537146549854,282.24069838232236,2042.5373333532332,-318.41799713050966,16936.82156573309,1727.125119491526,1350.0118535307915,288.4816600052626,1875.0935770460972,-489.1571332033959,16619.818526243896,1701.4740245692212,1343.5019975214748,278.1707364231527,1993.678950735886,-613.1739257769302,16805.846426683125,1727.465667755268,1351.288009516349,289.3703798083703,1936.9686259412674,-415.8700056012286,16824.03452443169,1701.7642780923898,1350.5914202688589,288.18485370919984,2109.0135306443767,-248.22799547055473,16689.289553989445,1721.6598596674837,1351.431559050778,281.2299519985313,2034.4075402303922,-303.7822366049369,16996.469078412254,1730.3494595497223,1356.9274277703419,276.228485488768
2076.0,-404.0,16948.0,1756.0,1333.0,301.0,2201.412725158254,-457.1876797622074,16994.90495813025,1758.6738945905527,1332.9821111366223,306.0566304700258,2175.2131022722147,-317.0786579630544,16954.851135022393,1750.721339394722,1339.912092731025,294.6811911901467,2204.9855606176693,-404.7713789602438,17099.54184491968,1764.264257406992,1341.3591685197994,300.30544109953314,1960.3472759872682,-539.1819412723924,16910.81383376112,1740.0239889990585,1336.501429154016,295.7396172752527,1946.1186733634743,-609.0768471790906,17021.971777147548,1748.1839947197136,1314.232218017958,308.64206949721205,2091.352537164443,-338.8798453175606,16904.642339927657,1757.3502535483613,1327.2821502684824,302.23551813090324,1982.277576910987,-445.02095304422886,16900.8034185106,1764.591288149116,1336.9007203818298,312.5372739766019,2121.304893102945,-365.0468646146289,16929.03313758211,1745.714158531947,1347.3290402176135,305.2189550278904,2114.855514641422,-454.57957655296417,16838.09522754053,1751.8788177833426,1320.1825802420392,310.10151060702856,2058.2870144238123,-434.3957874481558,16908.1944885942,1772.0598238109371,1342.3997088688848,309.114151130502,2121.2560807111386,-264.32602458466874,16977.15034289833,1761.284863591847,1330.1147575584025,305.47470964331876
2064.0,-280.0,16804.0,1727.0,1364.0,278.0,1879.875896835457,-243.26592340517212,16898.32849011987,1729.983556640467,1369.7358831247943,259.9850205266225,1971.5050171145222,-191.9796474669455,16630.008002419592,1749.188883850108,1371.0567526120253,285.7603284913039,2014.179756690547,-429.7489374590117,16634.639877817604,1730.2142445740321,1370.2260446750968,283.6101915447378,2129.89399297819,-269.1701585071575,16689.799658467295,1722.6706724955902,1366.4921120620297,288.08462245087054,2056.472806253032,-237.17062625392322,16787.79639139679,1730.773291835977,1366.6761861550815,272.43748889745405,1968.3196344421772,-412.5308851955126,16780.14848050685,1714.9899963105997,1347.9684312445765,284.38651191903983,2129.1067746400013,-337.2864709644635,16847.01520821027,1736.9751240116636,1361.464665446394,287.3887657093782,1960.0789673137497,-403.82005690922165,16724.676917834877,1728.161891057634,1358.4907265640468,282.0699023891008,2031.017824725737,-294.3213213486186,16917.66371247972,1730.4596332307565,1358.6059913968845,289.16500138466336,2003.721438473721,-332.0102025818868,16887.476116062233,1728.8004534269821,1370.964032754367,285.15234749338646,1880.7683469551816,-119.46272459265481,17038.49307098541,1728.8921655734878,1351.0400904343226,289.9837802855862
2080.0,-292.0,16872.0,1748.0,1325.0,340.0,2150.5673216455643,-335.2346048653702,16868.30549951329,1742.7759888129783,1308.5111687399633,357.38170220938076,1996.789452009939,-442.0127295583018,16963.198611293068,1736.4893328900669,1322.8837658850919,331.877918943932,2025.472519906676,-222.8771930874027,16822.807606106533,1752.4777050675389,1331.826498460804,327.93116317718625,2126.9717963833014,-245.3232450028164,17011.481830860605,1751.7183106204989,1344.0022548749955,325.9054567871167,2016.1256712905129,-396.100515466071,16846.601527673876,1737.3070194660875,1329.3100397049222,323.7931674547103,1925.3338077055585,-201.39026492920829,16989.245379224096,1742.3499164109635,1328.2748727887308,339.7793646119421,2091.52311031054,-278.4831991496877,16807.438295448064,1753.6085470365558,1329.266888700448,343.7860603418484,2064.2245284208097,-393.8722774346481,16803.082178715405,1756.4411008471234,1330.6733842492567,339.676246649755,1971.9576413705527,-252.14748382156301,17061.640653861297,1724.5349430944898,1331.704865620772,343.6706745437813,2036.9346463492259,-225.34644716617527,16825.196462585252,1755.869027836361,1314.0571888570053,317.5989279807611,2014.8131423209113,-368.8688696519566,16724.38227663223,1735.1157546104537,1320.2114967086402,337.4390414324
2028.0,-416.0,16852.0,1776.0,1325.0,290.0,2116.6714100012646,-385.32488848354427,16773.029637308555,1785.166674950227,1333.146318914233,294.70724272532215,2034.4691239226834,-602.6486690861177,16956.08902066012,1779.9354197215066,1336.6493799430796,285.34586508531,2003.25090745258,-465.6256335402097,16748.362133423736,1776.3504468629824,1324.9581289085602,290.71156022125433,2046.8956806608144,-402.9343613702915,16795.08023395464,1766.736164297023,1328.0867813753907,309.14721345645074,2092.7425217543705,-451.62798108329184,16676.456713799173,1783.5562249544917,1328.7099386960385,289.36708641959547,2054.6849718988965,-431.8815012712903,16860.700123697105,1782.3254253730145,1322.104093190911,289.4267500358643,2155.246250906489,-203.19048006418606,16823.114229593746,1795.0717256792816,1330.3276485865406,275.67672346416856,2080.3248683169286,-234.5914607265327,16847.204291351773,1780.4969903327506,1328.6436913560858,296.72163071394243,1932.322025274561,-536.5861369756185,16848.692364156737,1778.0966565315416,1323.0671097537784,291.06425835297443,1980.9811168768629,-465.35942437976433,16884.790801219824,1784.2925421585505,1314.9569128900987,289.66131826507365,1975.8227259448352,-330.2929774687449,16995.429053680677,1772.5674478146084,1334.521076228234,290.6050481370944
2028.0,-312.0,16856.0,1754.0,1352.0,291.0,1962.446632678799,-424.15948354178363,16927.563996669505,1768.0951435487955,1352.4975636770193,277.30256383642404,2138.9896888219155,-327.77260949108563,16949.721561177506,1757.3885398418709,1357.706273327433,294.606127273457,2102.2533120273574,-332.60696806855526,16876.59320949222,1778.2437192207922,1338.2321418277497,291.89567141405564,1973.0746704434937,-271.8202287811526,17048.733202320167,1756.8110151134724,1362.756418902891,300.5623802132193,1967.477973404826,-345.31997542769096,16909.69592847425,1766.8187645842404,1350.5031087291547,292.30649928109693,2006.9477216426374,-335.2875873782338,16960.879072205124,1750.0222413964414,1345.0425307550831,285.7251895189468,1983.6550464861746,-322.07085765019843,16664.6267934588,1751.891605094862,1345.362670000712,294.21064582118555,2032.3531202389731,-284.56641037995007,17180.86160538048,1774.1286223081884,1338.2039180177624,286.1772240167244,2064.9880426731,-322.6388351110478,16728.83778054747,1748.6542104018015,1359.1004822795715,297.0069551324291,1846.3070520639121,-228.6238199509291,16900.970166590017,1753.972225978852,1374.0354911948975,312.6054747017021,1992.0823490870002,-431.26723194466405,16827.18273193076,1769.3385131831044,1367.9278338661518,287.0698232382988
2108.0,-412.0,16884.0,1745.0,1357.0,299.0,2253.154294171869,-270.9272983314762,16774.729531102304,1740.8789555148815,1362.0295606638665,307.34281162331854,2215.4025226806884,-208.09832013586598,16764.293132832125,1717.6306111122603,1352.365104040427,295.8800361082555,2128.516179435732,-335.834149034214,16873.96935706174,1739.9806824744023,1367.7629158944221,289.90766067770176,1943.0081575577203,-497.6982404491689,16949.40694305586,1737.5855274280377,1364.8906049970615,287.2637384754135,1828.2863990094836,-365.6738057713457,17040.580744365445,1746.4294384147126,1361.7146121015583,290.15178092086296,2034.2476632987523,-469.8332545530357,16881.185394762128,1745.7828378657803,1353.7681170771143,291.84600838751277,2131.368362978324,-406.9415264259413,16867.037001480436,1750.1584152271773,1339.0097964413894,297.2635855618731,2188.6795070624867,-423.59287772359914,16776.936048621348,1764.5145285733229,1363.5349267720583,310.10124365766956,2168.932949371086,-435.1499695006252,16797.694027315058,1731.94857367426,1358.8284824173832,298.9496795372592,2023.9385646145868,-404.84421100134335,16946.60675151472,1740.557901677115,1356.1184012626154,290.62896971004875,2338.4522213740447,-542.7942569847629,16722.468270790905,1752.7144235100084,1346.744069754908,297.86024911739673
2060.0,-316.0,16812.0,1759.0,1311.0,303.0,2086.3788712460073,-247.16396787519056,16868.71093562482,1747.9031322404526,1309.9935117374164,302.74948878491483,2148.670667957318,-408.10094355041025,16866.382065958438,1766.691799939514,1301.8669326182521,299.67261828039295,2021.2251327377342,-325.28356019696014,16819.891711324042,1773.216435627537,1320.6178404901304,291.91683012886017,1979.9921898226885,-186.30842440787112,16941.423484755436,1761.260151175726,1303.0191707262832,310.18391897442524,2018.7590321073512,-346.0378777102343,16762.166720237045,1769.8846045383061,1326.1795108584329,303.5284499313444,1998.5543280015788,-431.2520140269787,17039.576510854495,1751.8328703938203,1308.6343243757215,299.25649772101815,2057.957105316628,-391.6344318899166,16851.696087497894,1766.723151019413,1313.1964648369399,304.3316987795315,2008.7906731406963,-280.88510801951503,16693.14956294334,1755.2075228450603,1327.9154101253305,292.29238270913334,1961.2775873488588,-201.54987111382863,16920.191838158018,1762.3359493193802,1306.9005248362062,304.4033328552499,2114.2192557504723,-242.55371840442206,16706.000126814426,1778.0626692465808,1321.1816971746723,307.3395792288023,2193.5415068314396,-458.7681673612219,16881.130219748204,1747.6018612714429,1329.3528119496427,302.1292120466013
2028.0,-332.0,16812.0,1724.0,1353.0,312.0,1893.1033346403653,-374.37706381309494,16697.396331809126,1717.0325404477337,1339.2704073293319,311.235731946856,2098.486252435129,-385.72644885956487,16706.80958242782,1707.5130235756658,1361.8802783289698,315.33414503362695,2137.8250603675065,-205.014500126953,16769.03135364634,1721.6834137994383,1351.481059720956,318.64849337656386,1913.9784379494945,-287.7721682308944,16666.154564633434,1737.050496664711,1360.0818626371151,322.1334490242628,2132.866592010091,-213.4846197415947,16759.516076713557,1742.6358717187127,1353.0861285697426,321.5785976828775,2072.4818899934094,-224.10201371592757,16864.16352916638,1711.985900209666,1362.17999231697,286.70877955150115,2136.39140583079,-282.5859383209844,16802.746951313962,1710.624121985801,1346.9983914541458,328.6892286006171,1927.1163786998782,-384.31307911350865,16755.248894488952,1729.4890059364238,1343.9611357076371,325.01461847029265,1945.8135950453454,-301.68550682414366,16914.403599150697,1718.372797972279,1349.3505015932828,307.8160650559102,1987.4668863760878,-298.58874794939754,16838.604844240203,1725.7418778692625,1374.0235908698185,310.03129394989116,2048.781127466376,-332.39506149874046,16790.2032694277,1726.354812367867,1371.5001117377774,293.4580682689243
2028.0,-404.0,16844.0,1726.0,1323.0,285.0,2035.6441701371061,-236.4006361996042,16979.910234804018,1730.0067740378986,1325.5083757089483,273.62546977596264,1844.7139535990375,-500.26994853149466,16850.200726935876,1712.0721721901607,1327.5759222549675,284.9600695098595,1952.6422499203684,-424.44302271741543,16691.83936162685,1718.6259318086354,1322.557951535831,283.48906926463934,1999.7764127556784,-485.3730717238061,16829.951595505405,1726.4297682148917,1315.7275873524127,282.4677272078919,2176.0398260633924,-428.9202610851407,16772.719801562813,1738.3372455082492,1330.2606988963284,303.50204524811403,1915.3197824371327,-379.1006391678115,16892.731776539113,1718.621830245772,1328.7111871858526,282.43992642565036,1765.9187507911388,-583.1426818128126,16857.298785829287,1738.3018097161055,1327.5271200063883,291.23916021000457,2120.966323927885,-373.2116062392554,16882.978961184795,1730.5538125945798,1325.2684400542444,294.9153751987113,2041.100411005068,-335.2340347859774,17040.792800870757,1715.9934080386056,1321.1118432641758,294.6020290876674,2036.6644824527148,-368.7500622226355,16978.910710860488,1743.2220435526883,1326.0653739470995,282.5494762117461,2145.7514744243786,-348.6618621983076,16827.255047754978,1729.7729031175716,1329.3162413256434,291.00059947052046
2032.0,-296.0,16792.0,1760.0,1329.0,310.0,2039.9193050514175,-319.5270137168865,16520.797170232163,1752.5501166840847,1329.6103215316925,316.1876906461604,1954.904045576067,-343.5263113487854,16822.58218675231,1761.1351518764077,1332.6734200994918,315.79816675577007,2012.2276725146917,-182.24478580465467,16760.58340094692,1749.3595068757086,1320.3482407016393,309.794068062854,2131.676826562989,-323.55700386313345,16670.424582942982,1760.7265868264092,1334.411201328603,305.24135403656896,2082.410364933146,-235.48276212852593,16898.400675632085,1768.0794372132614,1306.970658230472,316.53542068399474,2162.7545783243363,-273.65001711055146,16761.00045063917,1754.2161940275123,1336.4720244071968,310.7853629269129,2061.5931810351217,-88.756332701182,16903.021609830652,1756.4382238655874,1329.2854378132297,323.839570306945,1907.9421539217242,-366.2113402111746,16761.006736381547,1768.6433837160967,1327.0740659189705,305.9585189308488,1924.8023613518174,-622.4893526685794,16952.922185950305,1747.3983056772609,1310.622983904647,306.1136804035902,2020.9386319668495,-430.5488778871494,16711.535191390434,1765.2407100313137,1335.9710814227024,318.8415835784176,2000.5544762926513,-306.6833525166858,16846.852943847647,1767.0204183884437,1330.8882796751127,309.99584975520725
1972.0,-364.0,16792.0,1694.0,1314.0,300.0,2012.2812034855199,-332.012752382642,16756.58332995169,1695.6450215674913,1317.15620972926,302.3816537865904,2144.7850331083696,-463.82300214999884,16862.072589852156,1687.4529484876525,1309.5508297251797,283.92996930106176,1992.6503908224113,-248.06529095586637,16973.75429302808,1694.2039839742922,1306.8361632779836,301.6721956107851,2060.3786660331607,-379.47359884930813,16874.099587420296,1686.5766118548504,1310.4261062489861,300.0116868956161,1934.4934220024425,-504.8079475267318,16784.821082106944,1690.8731815138574,1314.63450089217,297.78072648564626,1991.2528437826472,-205.0232878844275,16790.77415553797,1710.0991018464902,1300.717501134189,305.57899765454545,2013.4408721798432,-510.9527245660681,16672.525916275416,1692.0316621018078,1293.6205308962994,301.72736340657394,1993.391559080206,-388.90388402846236,16892.728112977562,1696.0054728565879,1336.4572110343677,284.17068213110844,2138.683281365758,-236.66162739838785,16788.551777794146,1695.5412754105803,1300.1561878323512,285.6184577032023,1957.1161819924348,-512.8322344182632,16675.12638059546,1696.48507054048,1316.902396552017,298.55521768136794,1818.5601240976528,-237.1148982491319,16705.777214624286,1714.1781163794492,1306.047821158329,302.33490695959887
2056.0,-340.0,16912.0,1777.0,1331.0,303.0,2075.506650168377,-422.3630916722674,16895.52545073421,1778.0763035460102,1317.3935070859163,300.66770052004057,2187.492590696004,-377.14111067292265,16858.187510419466,1787.8346921848856,1334.3205063097857,305.18482332389925,2036.8031475645298,-337.5395725461471,16934.88055307505,1758.000289565092,1321.471220570183,324.1586851971083,2023.8070795589053,-259.8421708347828,16832.056731871067,1771.9462553928788,1345.6734372390556,294.9892375229959,2066.7617888955383,-408.17684839337085,16891.42658501416,1773.9059058700461,1323.5471837200575,309.87356966993303,2201.984574718027,-291.57453363074245,16998.7659983949,1764.4237959037494,1316.9191383750817,307.29580685748294,1952.3659784620863,-501.65424273600763,16889.53038796339,1768.6584569032211,1335.5805218405021,288.40057496420417,2084.973469288982,-428.0200872364784,16797.31678264936,1785.1381432955855,1340.4898435477055,304.33398247899333,2264.38854811865,-250.3075567422845,16754.531062726703,1768.0024571316737,1322.6413555524277,305.15790577406875,1970.5030966233728,-335.5774994500618,16860.066919961886,1762.503428860353,1334.5950676646366,305.95982878407983,2219.581055940551,-216.67418624254714,16848.721245755238,1772.2483032738883,1339.4583235111975,311.31486796253245
2008.0,-396.0,16836.0,1734.0,1367.0,283.0,2089.370134420176,-482.36849087123596,16679.425779437148,1728.6384598443178,1370.0504452209973,288.2744432862922,2062.1909880508865,-313.1240741245746,16834.213531814465,1727.1140463063916,1358.350145206062,284.9507989927597,2037.5636890600092,-435.35482610097404,16801.067337314842,1752.677232340576,1355.0619837119066,283.83354567714747,2180.7476740130633,-448.1626061298681,16794.168193154303,1724.9780562500116,1360.6000127594596,263.52431899760813,2079.8712447634734,-461.51051666609465,16694.7103395444,1743.4574022409606,1369.273528353261,279.71438869782907,1912.522468030587,-411.67176238781724,16931.287398221997,1754.2343940266803,1354.9919644174406,275.48044644215764,2158.561862135651,-234.75346102665088,16767.705376132668,1733.2644034572718,1373.2946730584122,291.29586781453463,2103.670098448969,-355.84071880433294,16933.439954717618,1724.062320344742,1355.348463326299,290.17357760792504,1962.363287948081,-299.84706241208426,16841.005487949686,1736.1720652857255,1377.1234355818303,281.2434992708917,1993.6534668653828,-495.0373949304462,16926.64844212771,1732.513920901261,1371.105862638111,286.5765274306759,1937.794799282757,-280.76665601433785,16800.305482766522,1748.723880506951,1363.1644583257623,289.4299062030028
2004.0,-304.0,16876.0,1689.0,1357.0,281.0,2098.7695103540227,-323.68823988324027,16788.02121448022,1697.2497983966166,1359.6948151389936,270.39187969584515,2036.734736089495,-254.98784461499372,16816.48250808179,1697.3150705056805,1352.5065726177268,275.18045595307046,2083.7012316468567,-560.9131264927967,16887.62781148436,1713.9791927010278,1362.019493170805,293.44100954861335,1846.555433564827,-357.9355285123196,16819.573074552838,1701.2420474865482,1368.166819419416,281.27558799107214,1960.380878009375,-527.7732953009404,16897.206292242,1688.2819910966757,1352.9329002043696,293.1068071820469,2010.3310265654072,-193.32056332045738,16880.850230276013,1679.3755603688583,1356.3481971997387,261.8178928940878,2164.764382465817,-169.8079630163643,16824.57980814814,1673.122218923125,1367.186703856176,272.7314125236628,2052.760161546811,-262.4289650098179,16741.20008665388,1689.7776230960417,1352.6549195425512,289.8238968985456,1911.8373839661608,-370.3036403275393,16935.521700571488,1681.5631382041033,1360.1311891070538,286.8069579048353,2019.4229240455081,-416.3465932845151,16788.499161975305,1692.9429041876672,1360.904079643678,287.7592118933586,2009.621237482493,-373.87802230266703,16902.163208051308,1686.5088215776325,1353.547828770841,287.89484338261536
