IMU1_AccX,IMU1_AccY,IMU1_AccZ,IMU1_GyroX,IMU1_GyroY,IMU1_GyroZ,IMU2_AccX,IMU2_AccY,IMU2_AccZ,IMU2_GyroX,IMU2_GyroY,IMU2_GyroZ,IMU3_AccX,IMU3_AccY,IMU3_AccZ,IMU3_GyroX,IMU3_GyroY,IMU3_GyroZ,IMU4_AccX,IMU4_AccY,IMU4_AccZ,IMU4_GyroX,IMU4_GyroY,IMU4_GyroZ,IMU5_AccX,IMU5_AccY,IMU5_AccZ,IMU5_GyroX,IMU5_GyroY,IMU5_GyroZ,IMU6_AccX,IMU6_AccY,IMU6_AccZ,IMU6_GyroX,IMU6_GyroY,IMU6_GyroZ,IMU7_AccX,IMU7_AccY,IMU7_AccZ,IMU7_GyroX,IMU7_GyroY,IMU7_GyroZ,IMU8_AccX,IMU8_AccY,IMU8_AccZ,IMU8_GyroX,IMU8_GyroY,IMU8_GyroZ,IMU9_AccX,IMU9_AccY,IMU9_AccZ,IMU9_GyroX,IMU9_GyroY,IMU9_GyroZ,IMU10_AccX,IMU10_AccY,IMU10_AccZ,IMU10_GyroX,IMU10_GyroY,IMU10_GyroZ,IMU11_AccX,IMU11_AccY,IMU11_AccZ,IMU11_GyroX,IMU11_GyroY,IMU11_GyroZ,IMU12_AccX,IMU12_AccY,IMU12_AccZ,IMU12_GyroX,IMU12_GyroY,IMU12_GyroZ
1976.0,-476.0,16736.0,1718.0,1353.0,322.0,1908.4430279894605,-367.96040562856444,16709.86686724014,1715.8849299593737,1366.671855248368,312.84023646105464,1963.1773412868433,-522.6798839967513,16843.075090368897,1706.9026043071572,1353.4332073411986,313.7303726424818,1922.890629820422,-507.23557322836615,16561.682709513065,1725.922827737666,1344.6521846893181,334.45844038141036,1796.2833180317666,-344.1548339900311,16534.405725825916,1708.7680433164792,1352.899677560085,300.4365170901368,1937.7252075540848,-534.4028756793581,16736.810103256146,1693.7563385072845,1381.4586127765233,321.25977614758006,2034.3725522118084,-572.0169321394724,16804.466849026503,1725.7700806124421,1359.1564904219383,314.604350779651,1993.5765065521941,-415.3993817331408,16833.365285148055,1713.6991863531036,1363.033683316108,334.6904651242227,1936.5293540274154,-584.8943371351485,17000.248923890627,1732.4772042682705,1359.413085094095,325.20370714947967,1953.3251199129886,-394.1948014204246,16741.062027572574,1713.3771765861509,1347.1907616833844,314.0087042301081,1912.2055053973818,-408.13689580777327,16845.080469797198,1724.9865227119203,1356.0214752141278,324.8054261268941,1947.2309048586192,-450.72999174859854,16546.984515279994,1717.737126294018,1346.9184416683754,329.7886205297504
1936.0,-428.0,16844.0,1808.0,1355.0,298.0,1809.2211988732324,-476.23437616303977,16735.31196577746,1799.2921913708208,1342.0993674664576,296.98068293662516,1907.1117080988083,-228.12727170942745,16713.53695101006,1805.8545248662276,1353.1164437701516,320.17998114352713,1806.2517116092351,-500.79184090592906,16963.466192214517,1791.3381590198264,1356.4384180819336,289.1107439155223,1936.7949387583942,-249.54660002806816,16905.67207927551,1812.7756940986208,1351.0557406807204,299.12315809954066,1970.6233329269164,-352.1054605282997,16932.71820101001,1803.636159672127,1357.2252798090296,297.98545441676436,1874.5604838317017,-361.98214464242864,17010.137487797063,1802.917694600115,1342.9703210318871,309.0794142946889,1672.8834608944303,-454.2681160134031,16840.562491412293,1786.2004003416894,1352.853454438281,302.031047924716,1710.3244106187528,-497.19731655460134,16793.654230207772,1790.3740827194833,1341.4916802435876,320.1248923993959,1842.6613555232543,-387.04740631804077,16766.62063109817,1812.096762230727,1357.4860232386147,297.8562252695783,1927.7212690672307,-597.3024769411085,16715.346851941475,1807.6100911652159,1350.4994731633958,314.9390566062856,1926.7945621951233,-505.67225790788063,16887.3800290951,1794.9456435771128,1349.3442073142082,294.8168456731879
1940.0,-536.0,16784.0,1728.0,1328.0,314.0,1958.8083196148214,-616.0005819507749,16813.029904763116,1712.0828699746025,1344.4914682495578,328.6608007407634,1818.448243027183,-384.479968802189,16776.313641341236,1719.8070857207229,1333.0790953933022,306.8407883055097,1862.3370009231646,-616.5320871145913,16855.96225333106,1726.16567933764,1332.2091073808808,318.0878290792132,1925.5138423061505,-640.134108996949,16822.935852864903,1715.6053562363027,1330.5513545619804,325.38725424464246,1917.1921069804348,-628.6156989656769,17013.679944087624,1713.9261891393614,1346.6387315651184,310.04464193021477,2034.9533991013402,-586.3550906314323,16584.295146317865,1724.4795636050637,1332.093342649347,301.48543033777497,1840.042789072987,-524.2342159905758,16822.3030408094,1728.8131364060935,1354.5694090481006,305.0473132198932,1807.9699128435022,-478.71172950775366,16659.545008856876,1729.7345585342996,1316.8993502873384,323.1012446182629,1843.0668696188204,-780.3172012319332,16566.026881310874,1736.3295619893652,1326.8837743407817,319.0118401814138,2065.8894334638085,-529.8076995200564,16926.815740807804,1740.7531063164618,1330.2920997243718,305.18789052228584,2113.422571601945,-438.2930463430937,16680.41824492451,1727.00308009935,1314.32717160304,320.6789068800426
1992.0,-404.0,16912.0,1805.0,1359.0,287.0,2148.1229032214897,-352.6812435773286,16885.76138927147,1817.0238150968555,1369.3202682472129,300.8500623773772,1961.5879112805524,-245.156070650139,16762.6453606124,1807.99285550698,1366.2947678389455,283.8096730354506,2127.4928389097804,-424.0440258283413,17038.571101263602,1801.9353878483475,1370.377400826032,262.60812412046437,2115.8550515472953,-430.0673023052184,17087.053745459893,1792.1193283046584,1356.9309776496593,297.1535850675686,1875.5064388402527,-411.29499469260344,16884.141205499436,1807.674847328414,1359.8166935932413,291.76529475121913,2213.0242765219746,-379.0763077356686,17049.430063989083,1792.2581711003727,1380.286115857585,301.7243425831175,1969.1389870229148,-574.6005855192401,16886.377201402123,1821.7996352524171,1344.4540689675214,290.4900139021271,1967.360928294004,-333.70700333794116,16778.343056653233,1805.2045234248965,1374.2500518279376,294.44854888657727,1896.348235457743,-185.59381263485807,16882.653457380893,1806.3580643166922,1369.9337250444323,295.4471080660882,1930.120637265952,-503.61626202674984,16885.0517871241,1802.9870464669373,1347.2733284167055,288.57031263780283,2164.3467213260556,-314.8673866458903,16752.70010004074,1817.286809002286,1365.0722390934998,290.00499525777985
1948.0,-456.0,16844.0,1758.0,1334.0,306.0,1988.1886035409684,-508.92027523357547,16830.55999197293,1746.158522663992,1340.2795198442598,292.4010355446619,1926.5830550464432,-730.1018498732572,16927.6647322527,1767.9627135955961,1332.496787348786,294.4552905932874,2002.594108234769,-376.7502352669486,16701.924559373652,1765.4479981798145,1312.1085063443984,311.47699031049996,1746.2069345581583,-424.6642631018797,16902.1531986907,1776.1901956756435,1340.9821225650192,326.7098439578153,1878.5534433649148,-532.6246754518667,16768.143646987475,1753.176745015449,1305.8464963941549,311.9674591371515,1895.68794509376,-492.7979788740976,17018.913827284498,1749.2120260376334,1337.8874222743746,311.0626619151741,1764.7268048806843,-293.48393757112,16726.242647635587,1751.4319632371457,1336.410589456113,324.81429665528736,1921.6040366484992,-496.1040765911345,16828.971740228313,1764.7198340305704,1327.851724700267,294.26449837089103,1849.311130898241,-502.22629819322407,16946.161943310206,1745.4793077127772,1313.9032006645089,306.9779104358692,1960.4322122490964,-423.4229902989008,16732.539806003202,1765.1128031230876,1348.3661577092005,319.951997657085,1858.5657336796248,-561.4255216823445,16717.353636277796,1756.3151434739705,1344.1917789719294,320.5729769363887
1972.0,-428.0,16900.0,1747.0,1334.0,314.0,2099.892292212271,-498.0770065113576,16799.920555293458,1761.417772774987,1340.1057649659815,326.1393998314132,2034.769955458805,-401.4802379263466,17018.80053666995,1769.9757617333478,1333.6763059678017,311.7985645030654,2072.6330942538984,-382.74245001560223,16792.50027511232,1733.5469087332365,1340.599696032462,310.2813521894265,1847.5898489736617,-483.8428930267813,16833.165748883443,1762.2510216345609,1316.4189350053919,313.6668461062007,2097.837529673466,-565.9654993924285,17051.224849828082,1731.4003719152413,1333.1389309891604,314.0717982948739,1915.9183003970065,-351.596945169112,16986.46758523314,1744.385087073451,1325.7694902440307,338.80820295708367,1968.1777324120744,-350.44531339187097,16932.398937720518,1748.4894042486912,1337.8366846546564,315.07859913428257,1959.167374686514,-505.5084025698478,17107.94667189628,1753.154796345957,1321.6785313343344,310.9440885805899,1952.6540833630454,-536.4904174196828,16923.65151274087,1742.0901589025243,1342.693840942791,329.1591210205072,1903.1837431284555,-438.1645811574596,16880.256939370483,1728.7230745235552,1355.9349353938146,305.776040009459,2067.2441562434633,-393.3634244661385,16679.086460113645,1766.1955092350056,1335.6877285197927,313.84680816004
1936.0,-468.0,16848.0,1757.0,1347.0,271.0,2001.3769446183655,-499.0551319474419,16793.956824202498,1755.027471277346,1335.4761398756048,281.37211735114363,1801.1209122385653,-613.2506297600897,16660.947064346172,1768.8447898840266,1344.9956024304274,277.99184471441254,1917.0736838297764,-700.6225233755927,16905.453079376468,1750.4600060581915,1338.707916475252,274.144491671537,1936.2505116702232,-598.6507506429077,16921.617794241076,1750.4256463421673,1327.6775766662013,279.30623950357983,1964.823802674364,-464.84886991384974,16915.213322922285,1763.0629061884365,1358.9322643030798,278.18414824425554,1796.9985280240742,-309.47141230468094,16859.8927053155,1772.161985744917,1329.515912963021,259.9186255115741,2000.6449837550265,-533.4541020547949,16841.29842572171,1752.8917204708987,1348.3659841715562,272.1321138349242,1812.518146852994,-363.7303975473627,16950.8306850069,1751.8179253615365,1350.224610404976,249.3450359051526,1839.93978551583,-464.81886917289523,16784.165130900452,1757.873148491669,1349.1302199784775,275.2216377039252,1872.145024824315,-395.04836336676505,16688.047216856274,1773.143269635968,1345.6737229584833,277.61938939445065,1842.4323355986112,-493.010188196432,16736.486437994325,1761.5682246229019,1348.0140863052175,276.08355014335496
2028.0,-468.0,16920.0,1711.0,1356.0,298.0,2016.4128003455012,-629.9332726966652,17023.91690249104,1708.2587842269659,1367.102630081648,300.55973714500556,2241.856390573935,-432.68961601060903,16954.688463337017,1710.5891006188488,1360.8884590782945,290.3632684071102,2020.4202767919155,-599.0553609539818,16904.54928892873,1712.3292084353268,1377.2435309639845,303.13285107564633,2064.942347235911,-432.0771064677671,16910.46035242275,1699.8675450881208,1353.7804025371631,268.0408940939442,2027.7757014660226,-227.91585376492554,16963.34040893476,1715.8527564010442,1353.2952084085487,312.07162896808984,2118.297391932693,-394.4302053006363,16986.891973520367,1711.4748784257374,1359.3731834667174,296.2570627957611,1875.5404215346105,-472.14470132578816,16963.048625634274,1705.0564920328861,1360.9585159643225,309.5071914660075,1989.0434577874018,-598.2351605184444,17033.124817741744,1726.6297388750645,1376.5245815709688,298.5968402426117,2010.163303671104,-488.60347907894266,17026.039425003626,1701.0227642262598,1357.6954780423787,307.88285979942157,2159.8319320183277,-335.17263809189075,17004.867844379256,1712.972623462829,1358.9040689978,306.9639451901226,2045.4490756780533,-473.93814624111855,16853.549628996137,1710.240186074053,1357.6197847641865,312.54884227654
1968.0,-468.0,16740.0,1728.0,1352.0,332.0,1998.451062908201,-474.1137701592407,16845.775845800792,1721.6165342648371,1360.0966127238282,331.62320458655677,2136.810732907111,-486.6870374062041,16792.472494491736,1723.752372708726,1351.6465045225843,335.1418220618034,2025.6787990016649,-647.0286167760285,16703.338574249778,1731.2455923313137,1346.931866651808,337.0079448383582,1872.368374608144,-470.48403156108054,16872.55443525778,1736.3962540289513,1364.3565983482506,340.0234463582742,1972.204185698377,-426.81644276909276,16732.302685292252,1723.3696128349009,1336.6849954025238,308.6072655965548,2167.671591702053,-426.57497225917837,16806.652954268564,1741.7809815894318,1339.26151736752,334.4970392191092,1955.8967370040211,-436.41054288853434,16889.436388600512,1727.7960939650272,1353.8650667901718,325.804212587486,1946.8835025332428,-417.8883553607967,16591.20667617494,1718.9285579847524,1346.2551589419375,335.1377784500061,2038.5660748940497,-419.5109936634642,16769.500103864324,1729.8213546410254,1348.9260851093027,342.9060015910827,1887.6943721320145,-500.4824680569599,16806.009508939573,1729.7294946528584,1364.0191851828454,327.6246456374293,1859.5216756053173,-382.7402399062694,16871.202986243377,1727.4203439175258,1365.50326291376,350.3318441746838
1988.0,-404.0,16856.0,1718.0,1341.0,288.0,1953.1070260901006,-532.503525588535,16683.997851170323,1721.5830710999142,1330.6551852812893,267.988859809882,2017.8213696540479,-428.1366810096794,17061.44724571045,1709.28720011371,1354.6789527362314,290.0967957683737,2200.86670827775,-439.79022261968925,16739.51618575351,1713.4452995229335,1354.7653192825774,278.6259999374793,1857.9608964445736,-451.5425246719188,16979.487490830328,1709.6674525653248,1336.3323932737037,267.8103921652503,1866.5319682709046,-345.89139909509413,16890.644743487675,1720.5812409915773,1350.181584953592,287.7750604409202,2096.4133020500817,-423.8092348856049,16874.095072188484,1724.441876651666,1339.635833478373,284.5985299533746,2057.156663578024,-384.05336308784666,16843.010514773043,1712.7125216647341,1338.3962511954228,299.1871117646488,1991.5767816464945,-254.377604242632,16771.081020111735,1712.375917232981,1338.1687382476512,285.88838247702733,1955.449124233352,-422.2517444698475,16889.336474045038,1701.4924963843869,1331.3438115491515,277.71792400364313,1977.0585646899146,-513.8331258523526,16864.09292397813,1707.6737572583452,1338.7575227750892,291.5911991334247,2026.681755310279,-498.28789620355985,16886.646849054567,1712.4382647295688,1335.7080200298228,303.6318735044708
2032.0,-468.0,16860.0,1710.0,1361.0,318.0,1991.2147326657364,-510.007807148,16958.052773682466,1704.1133508172263,1357.2635237619215,318.61869819017664,2103.238560063463,-509.4442244593452,16917.24920597126,1702.0254778502317,1353.1866016451513,333.4157941420912,2001.385945918142,-700.9245438421146,16768.491053336664,1727.7969977915454,1366.0704499948924,313.5530575021928,2029.2907486941342,-425.43715447842976,16775.526771385306,1692.308809738807,1355.2001963081252,321.51736933428384,2191.2160817385884,-637.4492018999313,16935.276954667333,1720.086577416455,1369.850062128497,318.59102445522535,1944.5156742373683,-326.84320369712054,16870.07302021256,1718.769592321403,1367.6522729412957,312.97589898420404,2044.943218572655,-434.5618373178275,16642.728475365297,1723.9790877805488,1348.8188936367114,318.53673058212274,2099.441063306757,-548.2209435361856,16768.859328410257,1699.056952151197,1356.00915309067,322.191117558461,1887.3480021932344,-595.0084582772209,16867.989801598338,1712.8072816253864,1372.4059204043656,321.7623613054395,2141.4986164264096,-365.75840704278875,16987.842034823847,1713.2430346542021,1373.590844464125,320.24667756457643,2101.9558175770467,-598.0786031375594,16894.610208421658,1713.8973241247643,1364.0422686959948,321.5943328103858
2032.0,-520.0,16900.0,1752.0,1369.0,281.0,1918.7550420535695,-581.2324713395337,16834.399536709967,1759.9190675019393,1359.037332118461,277.3528820415974,1865.2637049947305,-704.7695803063008,17037.771772630094,1752.5876074091752,1382.4685109922186,267.8220637483336,2057.554163301471,-515.3354640321701,16816.757955323956,1744.912622748434,1357.8621014842763,257.45983826333395,2093.209773926948,-590.5623594438833,17070.977345077074,1725.049219988685,1356.8535653266356,280.74877305883894,1833.913436524665,-264.6006341777469,16976.125152990895,1750.3331848924224,1368.9543029965002,279.34101464279456,1953.3651482703383,-362.3836496362444,16945.08831304467,1772.9041666085882,1369.8023227325286,255.30106331098463,2023.732653328757,-400.15060024828335,16822.99496910976,1748.8354160347121,1363.9564093388271,259.3630084523373,2130.064809384479,-547.6546228396512,16781.579865410327,1754.1327142975163,1375.20004789352,269.4633802164131,2098.4644521386217,-510.46727287436215,16939.422402883192,1741.4982489067663,1357.8870133807575,276.8977606728564,2011.9263191090413,-520.0328642848297,17019.364295495336,1750.4606602036101,1376.806310401387,296.70567926957983,1952.294933948184,-653.3193697452903,16969.467492456508,1743.0053525620638,1371.6304186703771,283.9935295607983
1948.0,-452.0,16780.0,1737.0,1351.0,301.0,1928.3545818584887,-556.7595565675392,16772.055847260537,1739.7014837541788,1355.5367614302393,304.7118938061444,2111.3882508730044,-428.54207588779826,16652.64375917072,1707.5992748933634,1348.1960079450164,306.26808638588466,2047.2553266969524,-508.0290883445039,16723.953226772323,1735.8250214567813,1340.4152262187026,296.0436672459847,1959.4222278615043,-391.8046177854564,16763.65614274799,1737.036405216858,1345.7237161676755,309.157060383885,1977.7329088924596,-517.6704608672837,16677.315162269726,1724.4166063530854,1351.361924934932,289.0620969168692,1928.593369967571,-581.1747976180515,16924.38132421998,1740.0884154274056,1344.4503759844463,315.106091547039,2019.9916422588365,-418.8313787940393,16871.57053260801,1753.7818810247222,1357.9982187611336,302.3051886623531,1934.7760351690968,-618.3310379807664,16778.08240094743,1712.2886239547024,1348.926791702819,286.5590877637691,1911.9173535556233,-441.42506893884206,16668.310056682374,1741.7867997199294,1362.4772278585808,307.53691290464786,1831.11385642578,-324.7317269199373,16630.148431626858,1741.436435723131,1352.9415431599234,307.35465135025646,1855.2104365529033,-552.6752498360856,16820.606599910876,1745.108567710532,1348.6062812237394,293.7140195238197
1956.0,-440.0,16836.0,1757.0,1391.0,330.0,1809.4150144766415,-431.3493856241539,16739.15193653665,1751.3839857736061,1367.33860968328,342.4460457068103,1873.5172288576555,-389.9996889848181,16815.190346326675,1739.4427415768423,1396.3464166307908,321.3566404955589,1911.9287163872873,-540.8174036537396,16820.469590684206,1764.887035862154,1397.0819422804914,329.2785172911676,2073.9015400518774,-511.9248427434336,16956.4284802395,1752.4216041404609,1385.130363425687,345.819260761093,2153.145083463088,-635.8748942677324,16648.713181639785,1749.8223484417688,1383.7175868944385,326.21808861657786,2039.6056982835867,-482.98498516326185,16819.736448168238,1764.889070333372,1395.0668892496894,339.4039279556251,1968.5782565953507,-295.7347489633545,16851.480090828798,1752.231342971841,1400.6064624436415,324.23584481909074,1822.044855408681,-392.56255400335294,16912.955920450946,1771.5534698970307,1397.2052194446737,332.05618997149656,1858.0661792638846,-147.72288509028675,16835.287076821158,1765.4559385934792,1395.8436529042024,337.79245262461444,2256.569426672258,-447.1294544455967,16596.61801203351,1757.432178977027,1395.0440107945715,320.60904769521596,1788.7633283377431,-356.826504439519,16797.851523516765,1747.689919234427,1384.311695685493,335.6666008567409
1964.0,-432.0,16840.0,1775.0,1318.0,248.0,1978.3152277669224,-499.2614431470752,16948.17803014728,1784.0487206975304,1317.305634333674,251.471921095083,1983.5039068462527,-425.7196817279214,16703.234587340536,1775.2981691599753,1316.5937911414696,233.40531181428173,1906.0390399872736,-493.18618312059436,16973.141854614205,1776.8228318945448,1317.1073325070288,237.41287318137364,1898.7824121836584,-360.5604931770726,16660.267322739957,1783.7580464297534,1335.239787295835,238.10439406073306,1971.4167039745605,-570.1584026839846,16748.39210663354,1757.2086285936323,1337.3610801912498,246.49978227363033,1927.060348516214,-443.4839812147864,16615.149586640215,1773.7567706838317,1327.254824636979,250.87636042965153,2027.7628624468641,-537.1577724940635,16943.596684541397,1759.5848013861662,1328.5818816446952,255.62398358877252,1872.0620762064011,-468.7881202585522,16916.94183636356,1778.2391266250256,1313.0163459155115,247.5666156337427,1926.4182400592208,-513.7744010623187,16927.550359848006,1781.3755082736348,1334.8421457389725,254.2475223163339,2112.654011443009,-307.2479953346172,16848.977264457026,1779.1171380685907,1324.362517449203,248.93653462211248,1833.4050850083117,-447.21479642762927,16836.08854927196,1764.2018495461316,1320.506589266379,248.91304399090265
1984.0,-464.0,16764.0,1740.0,1367.0,289.0,2065.162073723297,-599.2978277806995,16782.80287001135,1734.6006850953281,1360.1143738933838,308.34880039388156,1836.7050285241587,-409.43727654556346,16753.957316119348,1740.056042001337,1372.7832066472317,282.6864715500419,1957.5278199083707,-408.303653302805,16632.556422395257,1747.1697690427181,1362.783837980017,288.95534787660085,1922.5048242693156,-573.3991806285121,16783.770830015597,1731.6250926863322,1372.7385093552336,271.39747582463906,1812.0051981602974,-419.7780069312304,16545.02764077014,1724.135523771233,1359.6676311103502,305.37428047616635,2036.8051154213513,-444.1962503848322,16652.47208890011,1742.290307400211,1368.4656886681414,287.5112573479621,2341.6755291294457,-412.7062780455726,16809.254977516914,1748.171427408444,1362.3987806364594,291.4096042028382,2101.355131458382,-636.6349348939154,16770.566021199546,1748.0927665678728,1371.1051122439706,288.8396292730554,2020.8954776322294,-435.30692864510655,16757.677263872443,1748.7732452566881,1373.3443488697865,294.5831972971778,2127.4368144187124,-207.90686952467166,16822.853400372795,1730.130555803513,1381.5863630970211,300.4145989261524,2004.3855696913492,-613.141455418772,16760.238069585863,1734.4492937164182,1373.0322465250529,305.8627436647305
1992.0,-428.0,16804.0,1723.0,1382.0,312.0,1988.4030687448756,-464.98235130506305,17043.529571020466,1723.7902277549383,1369.3062437706433,333.4325354219564,1857.1777382883324,-298.03345364224833,16824.443522238886,1735.9921656987767,1377.5347527114266,310.2653118689805,1925.0044194732807,-465.3605909747925,16780.154542928314,1723.0959031160494,1383.4079543281575,326.16160610017073,1870.9159466590727,-438.93532784469966,16914.405817359355,1735.9165521774703,1389.3955339844792,298.51581123520043,2190.4889987021947,-450.98724782518167,16777.53919193301,1720.143896929742,1389.0364759193642,323.3986560764911,2110.0971055329214,-195.9061486714861,16765.02107291567,1743.1167684753314,1384.5739781554378,325.44154904181585,2013.115530306,-264.15486396920335,16563.78929419061,1706.5025318682326,1365.119355672984,289.1448803452875,1977.6497850658952,-493.84067679270754,16626.976699156046,1714.4532200112333,1368.8720775312574,308.1455830384778,2041.055243151081,-466.88746404249986,16786.498228296557,1713.5547984802295,1379.8648182550753,304.35161401169563,2051.266958415099,-336.7769558323738,16725.2870270419,1733.610439304111,1371.5687951168513,323.03495741331176,2022.6582748859523,-572.9090297658367,16719.9991735944,1732.8938393596898,1368.8030882057828,298.1504091732089
1976.0,-432.0,16872.0,1729.0,1325.0,332.0,1981.3971603988216,-445.38060702657555,16782.79570327526,1740.0334665632831,1320.7673212844365,342.06682322157894,2055.6966668337377,-502.7564528509804,16983.380916971644,1736.4609700581275,1328.679749667154,327.0165860909907,1965.6042308854087,-456.78204067031663,16909.261063922244,1732.7451147819768,1332.2137636723182,331.5256319935901,1893.8479473560283,-439.2261097230434,16847.6082044543,1733.481799040892,1334.2424673196804,333.31367256531263,1860.752426122366,-159.1965734701539,16814.456513486704,1748.977419099093,1308.655164957253,322.3167696359476,1906.8519825187304,-371.518420915924,16860.876244304563,1752.4641597263928,1317.9056687031332,355.18585164349247,1948.89305511167,-380.55796669775737,16906.287882302535,1735.7830435913083,1318.3881053128987,324.5912987925695,1954.135498986686,-428.64950032020465,16776.581978158843,1726.2155626749816,1301.5249512357486,322.36690943186505,1830.356913493742,-454.9123053335924,16965.238669789756,1737.387503446417,1328.2645950849787,346.05457286005606,1938.0365685161507,-470.0895338430352,16803.70212587936,1738.3480066527513,1320.1137833798057,326.9988680289532,2000.2340348663097,-407.92178951795665,16815.389404666003,1722.040203388838,1320.881325388061,320.39442723556095
2020.0,-388.0,16896.0,1744.0,1358.0,311.0,2080.279763958635,-245.49856896771135,16825.857533635277,1730.8774675324482,1342.2162005056086,312.65623441503357,2002.958024301147,-240.33105204309803,16703.324091632916,1737.899337883256,1367.699585953979,303.96550160823944,2126.9731277090723,-464.4841011431174,17067.97114702682,1741.4224249698705,1340.2576526698306,303.7386289902581,1934.5854777576121,-451.9047639565793,16982.259184052175,1755.9803022509614,1360.5173412683002,319.170649125476,1964.0781512710391,-583.6722126230319,16949.3337857738,1743.9152373222505,1342.746814098658,303.12225763817423,1945.124495691318,-405.36052354681016,16902.19517197767,1752.3920438800149,1355.1955407006376,296.56313317629485,2154.1263349641554,-280.72496733567476,16911.61154081571,1736.9103198774494,1346.8282312320136,311.8786311676963,2043.3195368493784,-269.2457573137157,16844.772382530282,1737.237010876503,1363.0493201870495,303.0397173669318,2046.0537138438046,-549.3797755524632,16912.799447167206,1728.4095086593873,1356.97986800905,311.8436032258978,1993.0176192696501,-343.89674405767954,16778.537208531376,1737.7744238436455,1351.3938991688306,334.59852826692565,1895.3655734926022,-451.00626921337283,16860.00486357383,1742.1074704088703,1338.3322551540398,306.878302429363
1940.0,-484.0,16816.0,1736.0,1347.0,339.0,1732.6959802617237,-549.1545390577567,16758.006588344153,1736.2977125726572,1361.9243823373363,346.1635885997703,1833.2084726076703,-434.27194226029593,16859.794484565195,1729.291698206222,1337.8511835256325,344.41041958607633,1951.1152716685046,-544.0069022998209,16636.585408334016,1751.2701645113714,1342.6637212334142,339.14867825648344,2022.0978153711635,-477.58313273185627,16569.197332571326,1754.6354071611975,1339.6889074419826,334.57576866246654,1996.0935416758186,-403.0702880741509,16938.955014654744,1749.2451827761388,1351.1144007873813,328.6024638400648,1874.034049981512,-335.49428069127094,16818.204427603116,1745.6863060905998,1346.0581075892687,341.80927358667316,1957.5035030138972,-435.3005766948012,16863.1337173795,1721.6728658218256,1344.85108287711,338.61807759973345,1874.4103202813153,-401.8607414745984,16978.580544409047,1735.4361977670058,1344.8301501924539,333.8520442855274,1933.706415393618,-445.84386998292445,16908.32004707805,1727.4168917734335,1355.7222398824467,340.9493669817065,2067.190221166966,-424.11762505945876,16868.064863854648,1745.3330064561765,1337.3991957510927,333.7233540999574,2051.7365415917716,-531.7399934947899,16834.00356454424,1723.1473737915514,1361.0014812040624,355.5542656699034
2040.0,-456.0,16896.0,1766.0,1306.0,290.0,2058.689941689263,-552.8468735561952,16776.664167633277,1768.9791037665161,1305.5985697923113,299.9608292191843,2004.0054234392478,-330.17335331521303,17032.98292389073,1758.4607060235755,1304.1757335803516,279.5398712115159,2086.739992404769,-480.76011036778374,16837.538641995823,1782.4127522893057,1309.3961762552435,291.7465889741659,2041.1419740214167,-462.28278095731474,16947.971899693974,1776.739877568361,1324.7585751579993,288.6010635690921,2038.6730353545638,-379.956619480992,16767.796512405635,1769.5501783876332,1291.4776618396425,285.1767691481921,2062.745112572836,-533.5401741290154,16966.837262995596,1763.3130625293322,1301.1556557885085,281.6348048634411,2139.315710891065,-416.9477418957515,16929.41772495628,1758.7512121994391,1314.2772655743647,284.95199975201115,2033.1277176900614,-402.6800345847493,16778.311233430068,1779.3517348621135,1300.4455584096681,275.7301762832459,1960.3947568862377,-192.89985547002442,16853.209239175383,1750.6258748022215,1309.5562201402179,284.4460457608748,2284.6918118360445,-454.833239356884,17031.252450826043,1752.1773561236212,1286.9852523852426,289.6032785507324,2042.9697250651059,-420.57490280538997,17096.01738576606,1758.5911395793178,1311.5330694074023,264.8262913703074
1996.0,-452.0,16868.0,1746.0,1350.0,310.0,1932.6627757274582,-437.7461752577185,16885.891214426996,1752.3182943964202,1357.3641885354432,296.99200726197137,2211.796224834957,-317.8449733122085,16894.16380297509,1725.591244694458,1356.1951663494194,316.59382164400273,2032.8936594860945,-370.89314813340206,16979.255273360744,1733.7959893695877,1357.3101273902244,314.5966833635421,1937.6711483581018,-430.68307604630735,16753.883129650978,1746.9961793679352,1366.34558606828,312.2017736419122,1924.5444223938225,-446.17632346322677,16932.904355264254,1757.662011638498,1350.9370792952661,301.32632188552293,1941.0816083666946,-382.7020585360318,16877.39078554649,1736.65025630439,1356.6362309398216,320.36725984480876,2036.252303418446,-411.9326038184866,16940.75404741472,1747.7819967068049,1354.4391626728286,306.807585320479,1995.7527905827126,-385.4246651453857,16961.257628120762,1732.3760664037102,1345.1090478866079,307.22322466817684,1978.618454722932,-492.96972573737946,16925.574713991115,1753.922621069208,1340.9359464968416,314.77431044494654,1964.304203772714,-514.8089566203054,16946.092471262113,1752.749192083474,1344.4921499737052,302.5312805307398,2100.4530953430626,-546.4982277382177,16741.342585264258,1755.0250220313922,1336.21269847187,313.39042706080085
1948.0,-428.0,16676.0,1771.0,1377.0,287.0,2070.449795536305,-359.4752583948764,16700.86084802875,1771.9628099556003,1383.93501522991,282.1094673541208,2035.047099880757,-664.6843851292123,16642.565383870857,1774.7949471326876,1370.1787930581447,288.51846999767037,1926.1758626483472,-365.0305127461506,16947.403303522835,1780.5131726334548,1391.8555393436136,280.1662496161562,1917.998155177059,-385.40939299030134,16812.554242506518,1773.4762329755952,1377.1894954035367,284.3552260459033,2019.7887709541765,-482.3863227204128,16554.278262980315,1770.899077479611,1365.814670182459,292.9074665395749,1754.0038853809838,-553.8675699569768,16659.49577701181,1757.720709570928,1384.5135380274132,291.7025025807428,1898.665545202461,-524.243789001721,16591.78739783665,1778.0107130747758,1397.8012234306423,281.2686117325854,2082.347416258718,-486.5981827481773,16626.40557491888,1770.1663744353084,1381.8184802990138,302.1017102046469,1922.390975178608,-291.092859503967,16593.619222340218,1774.2708192248142,1372.250049056716,283.03627289297634,2070.6857094690617,-500.24203795192545,16782.65736822576,1771.0423294530935,1374.80973388559,276.2176078742776,2004.6032973869658,-471.6473494554313,16638.917003495746,1755.6138406565415,1365.8298611665452,287.05517046389224
1944.0,-464.0,16796.0,1776.0,1365.0,292.0,1894.2938061679295,-521.7772450149835,16756.64750191533,1783.8773439380789,1371.6047056982677,302.4124269856508,1766.386308946778,-394.9371694586796,16930.373051779134,1776.9171475016137,1362.1904239787225,304.44647320335207,1969.1550166460845,-638.5030735525601,16648.12135004074,1773.4809177891752,1372.882519865078,292.6486148986962,1815.43926101992,-521.1336875457844,16614.737016988405,1784.586866097966,1360.3731239796828,297.075699507501,1868.7164925528339,-443.9418200317863,16773.844473736044,1789.6047008518997,1372.812665512894,269.9888251366131,2012.395818987387,-359.8742728426274,16795.64834434044,1775.8315602976627,1381.4356111867592,300.36906435855195,1935.9212351690883,-466.2995692138993,16730.481793833693,1779.1649725415107,1374.4238166732093,304.49177124055245,2121.8003081383467,-362.61716387986496,16744.472334342532,1769.1947035826222,1361.2948690784224,294.8962690708295,1994.1128287773017,-344.9011384574834,16879.719011382105,1758.6387528124994,1370.6268784572164,310.93640574285234,2141.8992049508133,-672.0426514021808,16542.880747643452,1763.024968941342,1364.9168916132378,291.42915820041867,2043.7633599942744,-316.48289226327137,16653.848852333107,1773.7421648467948,1388.7407276967015,307.6879452299048
1924.0,-452.0,16868.0,1702.0,1367.0,287.0,1672.711412818624,-505.94761281723163,17007.30312356874,1712.2096573313147,1355.8856086605142,286.421051384128,1890.8875440566096,-446.5618170017646,16878.144440279295,1698.2224259930244,1367.1432749604382,289.3446629546646,1834.1969042752755,-455.0423461450808,16767.72341787225,1691.013829962241,1376.8971816084431,291.5085940198126,1834.963387371316,-477.96469253685547,16823.245010866136,1692.580750520142,1357.6021655066036,294.7993894577873,2065.9822742608494,-350.01224339667755,16933.129198560222,1684.503263396931,1361.3185709059828,299.74811332978516,1952.075151797554,-431.96237625748506,16678.7754634633,1699.1725154838266,1373.8454605094175,270.43975214970595,1795.5907513657041,-287.718416678163,16782.200177179435,1681.6895372156275,1376.5040164158959,285.0291682632794,1916.8449835291071,-378.11890828637524,16814.404687192746,1701.142733081852,1346.0619673560395,277.194463543861,1948.6651037821605,-382.05071062602167,16813.593149540342,1709.0967219866488,1360.9976906035888,298.20907130054036,1786.137151603005,-487.93561124170776,17021.554485184515,1715.8276055869226,1351.1073897138804,278.83060752034476,1916.5878396052435,-340.2028779286597,16954.957556965746,1693.3765910993945,1381.2089169110766,293.55684190728493
2004.0,-484.0,16776.0,1738.0,1351.0,316.0,1862.489245091417,-594.0450033431256,16653.411085439737,1745.6917337343577,1358.5556572500693,326.2106368364127,2111.067896468237,-631.624648713709,16746.563305927986,1738.8127016671713,1348.9604362785228,312.1886065060264,2048.9001596946187,-449.66456630088453,16778.901594967294,1746.0125837595033,1343.9932382129116,310.8568331086018,2178.8516504511877,-506.5563427825596,16819.237958942875,1747.3882256400564,1348.4110963663466,301.05184444105646,1912.6155852706186,-408.91898207836954,16835.12946548491,1743.218589697643,1346.7528823842479,312.7696367372043,1953.8083832761213,-433.1017284670736,16829.51965464568,1721.7135763728224,1360.4335582228753,291.93393730259027,1899.0686268112975,-482.0096468389579,16671.83436122817,1730.7164200172715,1355.2715394459053,307.1168054688231,1960.9996115168542,-545.659911203142,16786.776927463572,1730.9019719801836,1334.4128072410049,320.3191164686124,2091.2388438601192,-538.4268817135862,16819.390406999733,1740.9466806810874,1363.729280659261,305.6878801001862,2031.2845553600603,-549.9267518747583,16639.85421081325,1736.8661229610332,1378.4145868168566,322.6972317459923,2075.2484017270763,-551.0520661057515,16746.11103065657,1731.826541923685,1344.757532417456,322.96563685954743
2060.0,-332.0,16608.0,1735.0,1357.0,265.0,2167.8168263167304,-270.05689929238923,16711.55278201845,1749.9803842571712,1342.787079267648,274.24036889723214,2004.8859294796405,-239.49446615999224,16729.83623890774,1731.615566695295,1361.4553552215818,258.64154677780414,2049.606619959534,-78.0649172358905,16684.263999661813,1720.5941212812982,1352.3254722943486,255.8537176595122,2083.5161010124702,-455.1139593254736,16498.560352670604,1749.7392932436846,1354.846405327737,252.67300143290115,2073.2741128882108,-333.684381213841,16452.30964297658,1717.5828289291178,1362.6427605506135,243.46420139136623,2014.1828389678915,-397.162285412846,16622.566760659916,1731.3531784398037,1360.609610162665,254.2216105408753,2050.755269005775,-288.70140313958206,16505.002684582112,1749.7166804143662,1350.3744698267158,260.0058736743398,1972.1535279785257,-358.11210866382305,16782.566441763764,1732.5890137126178,1353.05803390613,265.72279037717425,2146.9883090477306,-337.1285164739527,16405.54380452562,1738.158687606518,1355.4339697482487,263.69135194915543,2027.9296376194138,-231.4484562608331,16281.616866506756,1732.5756267410593,1358.1212891228065,270.42905759829915,2151.3427704372584,-268.66539131922366,16704.591496218127,1727.8659086823218,1341.3333271569618,266.78293584376354
1884.0,-632.0,17168.0,1702.0,1332.0,285.0,1832.1055607861165,-353.08085707243873,17247.148020198514,1704.4651315049362,1339.4906880485757,276.1880618688865,1991.9039266249272,-421.8505200936986,17183.63106122419,1701.9495292708605,1325.9132189895947,277.9270432530094,1768.4061195747395,-735.2770247027723,17101.966463423854,1699.0659150800277,1329.7673165979163,300.8069684004204,1905.9992446600086,-475.59522168186857,17237.74918058174,1704.3671791580553,1331.8650565424932,280.39098806596235,1920.541578875025,-620.1877045257614,17148.87225635026,1691.8036639737802,1326.0340484017415,274.5668099759952,1948.1654090523925,-469.6166898670873,17090.400925661368,1696.133829216213,1331.803967797108,280.6524062631283,1879.2740579188694,-650.9416516700015,17001.54629072256,1720.4062132694187,1330.5774022170258,297.2939246349633,1769.0732443774853,-700.8553124129863,17024.035298418654,1687.7935545912603,1339.914707267531,289.33710546957246,1808.8662477351916,-492.73234639630084,17075.91142299104,1687.8858960839343,1333.2281435667614,303.52984615178104,1741.4093347692174,-663.9918604381012,17248.794078527124,1700.5038625978611,1327.721823133376,289.7163522170432,1823.4784137978095,-610.798324700228,17078.96527315961,1700.713957956955,1328.1960819950882,286.1804212744424
1952.0,-384.0,16940.0,1739.0,1375.0,306.0,1838.0661160399675,-496.92640044253164,16863.66795163833,1742.8527823073662,1390.8803537871538,333.9447227064964,1993.8924408453267,-410.3723747569265,17099.987913939476,1729.3808730950461,1375.7107386460068,308.6973423728235,1829.156162088807,-221.43776796732135,17139.32975622368,1740.516227416764,1368.1312705332277,308.44980469136397,1985.9151916928704,-244.70923168224456,16904.602700465355,1743.752871760029,1365.521671927573,290.6955085080738,1868.1014158097262,-360.1144747451361,16941.80475413544,1724.3449022947323,1372.7027606085737,301.7860791461032,1995.623750086296,-253.6785532990599,16885.75580276867,1741.538828500629,1379.895778324243,314.5237451245489,1874.036714204383,-392.6775891718831,16963.407961318873,1750.5522975943074,1382.9733524240462,303.60105828792257,1967.8825406417257,-398.4527289288194,16961.40198223975,1755.929817871695,1369.9204505670148,303.83089938754796,1874.8117402007658,-396.060401281404,16908.92830219501,1721.6841218392362,1368.39902144072,299.9053658115996,1809.669655561966,-270.8689771278027,16999.15016802093,1734.4246206718308,1397.970749068069,318.22378588294356,1926.7829693846406,-342.4293115121661,16970.930176752023,1723.6157478978203,1386.3236379183775,319.8425737782365
1984.0,-496.0,16756.0,1711.0,1351.0,255.0,1928.5226371417539,-459.36563880516235,16706.728721999894,1705.6364012745446,1355.0303208615026,258.2460536299331,1852.2853340306312,-233.12404796001255,16732.14206560076,1691.3650192885352,1352.7696795042864,250.41008531984806,1864.6628519063315,-569.4568183818494,16825.296270052175,1706.9295693857355,1352.0374998690215,245.3355519387272,1972.214495088682,-551.046763310746,16865.515697158906,1711.084694455233,1345.3539903732765,240.9302332654282,1882.816872166556,-466.4810679392969,16766.656431305593,1711.0728141705306,1355.1268165833671,244.1907051564671,1995.8384669388008,-720.921050106578,16655.178858005078,1715.1965181528112,1358.513651894975,267.33209938048935,1937.086900247889,-603.0625758520662,16655.096082914337,1725.3083074024323,1346.7603621826418,245.8739077222076,2229.164844662791,-469.14055151017095,16726.054231358605,1704.048452587286,1336.6481448397226,272.3431093317986,2030.1434099979278,-389.9522463255478,16617.091815398395,1709.5996964699107,1345.950143357325,268.3864654040165,1966.1467132937853,-228.54816933511637,16846.15558557557,1699.6711988197405,1363.4737410013788,243.37327425174345,1951.6463713303513,-499.37078871004394,16660.63529716649,1696.9321511607402,1339.9505720211282,255.13811251752202
1912.0,-380.0,16832.0,1741.0,1371.0,330.0,1927.8525331591823,-394.6188309769692,16972.638919134588,1742.3932550966485,1375.0433600954163,323.56640550827893,1776.2011331522244,-314.1602522121499,16967.72435065457,1724.8691275701256,1371.9190301516162,340.7460121018912,2126.1930032036867,-341.56316754044315,16802.012410090836,1733.9670970980587,1400.9715281508877,323.85491516541254,1973.222530265191,-470.7215313154641,16974.423508628082,1733.597201168246,1355.7607792107285,327.5920518306154,2017.0913079309626,-147.62206155296843,16773.450609582043,1738.0802055206939,1381.8168719058415,333.77017559046453,1793.379760405136,-250.87497537343341,16930.23482818656,1744.1681937741537,1363.6093724730897,313.64166385817515,2015.1069005364877,-531.7075367401912,16789.758865515607,1759.3552568562984,1358.3878305151536,329.3633092709086,1865.0086905707076,-395.37164832771526,17070.864263133117,1724.8551216205806,1356.4129156119648,329.41222788096616,1951.9271880842516,-491.7738488253958,16928.17986049068,1732.7333618390899,1388.4848754454727,316.2254232787317,2012.6325453552174,-212.5030848650325,16770.632454425053,1747.3691090556963,1387.3669959400536,325.29899428756806,2104.965790288184,-373.37021272321886,16817.58952349929,1751.0847142888656,1381.4765111529277,325.8563946144949
1948.0,-484.0,16780.0,1732.0,1377.0,299.0,2003.789487313457,-542.4219158062676,16874.865350826396,1753.9865362593823,1373.0048663297687,287.9671297223623,1941.492249424513,-346.4951404987862,16833.947925306635,1733.7114372538852,1382.8570435825686,306.64397964136003,1748.4868012226307,-569.9882585184744,16881.410136973107,1723.3208665022491,1381.103129574218,303.4765962035227,1892.6317002586793,-266.6014467741556,16754.81491330647,1745.2344949133621,1382.6707279370203,299.9203407358179,1896.521266371682,-532.970864804038,16804.23755305608,1743.7246717555618,1361.5315692065792,305.05039236054915,1968.9687149503036,-554.2009599884391,16740.54394190724,1734.050542194749,1364.1086233998049,308.5877825364005,2017.5814955672756,-344.2842735307562,16665.340109293214,1725.4231398081015,1366.8138290914708,293.3063180516515,2101.360426497079,-465.8237949784214,16695.119639594504,1746.5301219727753,1358.4675965946858,291.95396482782087,2091.156738825047,-480.7150775821808,16874.090786916437,1730.8960869663479,1392.6497429637395,304.1015270882145,1983.6113377908373,-320.13567299626357,16719.087664638748,1730.8851584067982,1368.4904173646105,302.8564708642103,1977.7323951545586,-693.6911780210737,16696.80838515873,1723.9342023163344,1373.5172449340814,288.4820847354362
2064.0,-380.0,16860.0,1743.0,1317.0,333.0,2076.2767003597664,-458.16908334419236,16868.19979669781,1743.211149447255,1324.5669203510326,344.2512685834588,2055.6184456976384,-355.5709322737812,16913.512787987267,1731.9914551263646,1310.3024123248806,325.88528846559086,1988.0571351309088,-226.7899221603165,16857.93565154786,1745.009420681143,1323.9949442134214,334.3998544337542,2059.9543155835167,-387.3376327406464,16874.279077350162,1746.3289722176883,1310.0692933326275,323.4370731770904,2164.080008801594,-453.23731404171053,16891.960877125402,1745.131997083611,1321.4581575991906,318.75722174325375,2045.3194476082615,-511.89311414856354,16762.972271899842,1741.8719817768465,1318.2641931752107,318.5366838606217,2091.540828439724,-302.9611325908186,16844.204526658457,1748.9539119712263,1322.970212098443,334.4389056539143,1962.5536194739327,-337.99481837829325,16785.485517045432,1754.8060259055046,1336.1326827210535,353.00882101162904,2142.5324885502932,-428.7507846015759,16925.485114934603,1742.5699148043434,1304.7573299998428,338.43798955382385,2059.550591066354,-408.6564935642697,16895.316230303375,1749.6674408014505,1299.1297549323015,342.14038243459976,2060.211506856389,-403.9307803066531,17095.8595111495,1737.1270985078747,1326.0918180569636,319.4339491759507
1972.0,-512.0,16860.0,1757.0,1341.0,310.0,2208.357479588794,-349.0548494559498,16995.803190169867,1751.1427006716528,1344.4997596502749,313.60294978610455,1815.0405399938193,-457.5567359417566,16811.273033497764,1739.971798690612,1333.7971197751049,312.2375519015423,1973.027506182359,-725.5794668175249,16657.923545259866,1768.1929874419743,1333.0266064080513,304.44915002328173,2073.1080738400824,-566.0080698863361,16894.312520221214,1778.6454519809322,1330.3351706434003,320.75007887437545,2005.0325829984984,-385.26513572645644,16879.000265110713,1737.4362728238434,1343.5066792399682,309.03891923729117,1978.2208674227602,-422.15366715888126,16866.24340321989,1756.233762393378,1345.3222384018454,313.078750592508,2253.5824719622333,-376.9667444180491,16963.367700835377,1751.5306396181384,1342.521016257357,303.2735814626986,1836.9524417733594,-419.5904453270539,16973.97422712653,1763.2331671394097,1332.4284517696658,320.6257110278176,1916.142519215451,-696.9980065792663,16990.645259186535,1762.924476238769,1342.8054858951348,331.41852999777996,1964.899659058954,-624.0912318598944,16863.870971476066,1763.0202626447056,1332.493311535044,323.1651654927577,2063.259100659793,-664.5827941848478,16906.88457316122,1741.104076871163,1346.6452422134182,316.36110923950326
1952.0,-444.0,16852.0,1764.0,1355.0,289.0,1871.5878039899444,-277.6590140689024,16833.635715600027,1768.7063168834761,1359.7781981652367,285.1766347553712,2022.678070123183,-339.84320874651144,16961.588872563847,1752.8461551784196,1355.1265922803082,307.402567773899,2162.603692823251,-441.82525011078735,17006.24398949919,1767.8944684397334,1354.6816222962943,292.60016973948825,1888.0733053378092,-339.267813186881,16924.085360685694,1753.6456931683992,1351.293038238687,286.93264616985095,1889.4252069596905,-446.0080696175725,16807.06973223281,1760.3497824534013,1348.1234915080038,277.55205299112146,2116.7896274550053,-467.3042263740932,16924.742936352868,1774.3481478688846,1350.320497062651,288.49044584217137,2137.278191263049,-491.13999676838625,16912.518980430184,1767.1114429578251,1347.973872653602,279.47056710355787,1951.9653503393122,-514.1558654984017,16923.09719698301,1778.2627273805633,1373.3487586917042,291.23806755866644,2089.3435943424684,-359.40386345293433,16839.069549914228,1758.4641814067138,1335.7348430701584,299.99367171989616,2062.013832028576,-426.78817898509493,16975.13170657533,1775.9153072050785,1360.1281665615516,307.703012193172,1867.3916097555839,-525.6989472950962,16888.708173194584,1775.2033352288602,1353.626228106835,298.1763645584099
1940.0,-448.0,16812.0,1751.0,1377.0,319.0,1892.693260950415,-604.7455947787192,16803.462352989998,1763.8902887948827,1390.5218420538793,319.1779387322803,1974.1579014519943,-357.3720741211298,16835.61551606157,1753.8477909158414,1368.2519118686014,324.92970985002836,1966.1044974100018,-418.4665858096729,16820.390751998,1751.8491877040135,1380.2463610065845,327.20212345432344,2016.2697057069972,-449.4008523417881,16927.0025512217,1766.7123068411768,1379.2090407457572,337.1401230011794,1865.61962191476,-538.0147202305999,16765.451820125356,1759.0659575800194,1367.7074910538802,331.84889008269465,1996.1233421256345,-377.9625147299979,16757.89929571636,1735.5350736881667,1369.61574696933,301.0712036021681,1897.4286631378934,-491.74762594401955,16848.579634068516,1754.9604773502117,1380.4855452818035,307.97041304307874,1972.769095092477,-485.10134909240566,16918.568069419973,1752.3176484617454,1379.2216870430163,318.1182817268227,2032.8964541350808,-593.4260661109805,16705.051989573625,1752.162626075004,1371.756734435961,309.01781770002947,1987.6097563955339,-362.8946098024344,16710.14806919342,1754.7861745122827,1370.97465045522,329.49587672499604,2012.2812743042575,-287.5045506899046,16750.822136838407,1738.8301026048296,1366.913226729226,313.9227497227269
1928.0,-396.0,16832.0,1750.0,1327.0,312.0,2028.3446003544273,-389.5527103474572,16563.065226217164,1763.9003822948237,1312.6904983649551,308.8675733049017,1888.6694160533737,-440.8937014833408,16915.93957687434,1745.640064924432,1323.7607271299728,298.80482125058325,1880.1503796234372,-553.3597351122012,16789.197397089876,1745.080750550787,1317.6329443674265,314.3365188051025,1819.8348340732725,-342.6078561244674,16856.090918382135,1745.2205952645745,1331.0200817000093,317.0421220403126,1792.0969487765178,-441.76970757528073,16949.65459779308,1747.1482919439939,1341.5311165333667,305.68754338005755,1903.6215056295007,-538.3189577621876,16813.554642379266,1748.2004287423324,1328.002812616033,302.4054478915003,1958.7993324388153,-402.05990158004687,16741.35916523166,1748.8899057198842,1317.1259173952565,311.92384544474606,2093.4911778463447,-421.341608532777,16741.459205833595,1741.0922325659333,1309.4252097098406,306.4727886336188,1974.6787259571033,-232.20121114277595,16816.278477066564,1753.8377648490775,1327.6300372116627,307.502149136581,1829.8119651749355,-421.8461365457727,16718.849444437084,1746.8601664224798,1336.2166012534788,319.1095818018449,1846.122847538642,-376.58365500781235,16812.17223522674,1758.1846763058536,1344.1945449757054,307.29680759554725
1960.0,-464.0,16860.0,1751.0,1351.0,283.0,1935.8907468518541,-324.21503243970113,16671.53613189415,1736.315090120338,1351.4085209299533,286.10468207842706,2015.1828159522036,-624.3273335611511,16867.838628906455,1742.4875804808291,1349.503779896846,267.5075193924562,2051.540858120412,-393.41853203397125,16814.00055895098,1745.3872745277436,1347.5074694551743,257.78722585248624,1972.0457675718808,-577.2218908753227,16920.498673976228,1768.637165479954,1346.538661819813,270.8731158019538,1971.9837226526104,-463.4049975377144,16866.272459633237,1735.972192713332,1338.0256401635058,294.6650697302584,1862.4173385715867,-489.2776055739729,17025.39613876332,1746.063873972321,1348.0415239765452,302.59312260340704,1867.8251665108703,-541.6668895486777,16931.892786116678,1748.3384367701237,1360.510351577231,277.1241433906413,1889.6281794547785,-539.4138770055937,16971.05310675346,1756.692610797347,1351.9375443352328,281.692404104428,2100.448640888994,-415.22143997707224,16901.883143542407,1765.4137064069018,1349.005667385086,288.6242356113094,1972.821232430307,-378.1791888922864,16911.104001587784,1745.3984006452724,1368.9815361360834,261.49748224690273,1873.6763764749562,-500.9646147296466,16753.863599570126,1772.8937387954377,1358.4102892981798,279.7003278401783
1980.0,-432.0,16752.0,1731.0,1377.0,274.0,2067.2202066122013,-476.4046722811097,16801.821889184386,1731.6607883374281,1379.1701776328869,281.55148747223757,1985.8355924534621,-303.66854075015226,16667.458891433962,1733.5069718634356,1366.6193895598199,273.83752124909836,1753.611323583564,-525.5912233308246,16830.284807344917,1734.7207828920077,1374.935653248042,261.00787473735755,2026.6918226987152,-177.53702511961558,16625.187763371796,1719.6930162708795,1357.3966326902216,264.9659909259699,2012.6166426260293,-500.65750347600374,16851.022097032022,1728.7874158367483,1375.1361728611585,280.30111594997817,1935.1791336942276,-349.7312229511687,16784.131303748647,1716.4853677006363,1351.7582312219727,264.58402157546226,1975.6976955070434,-405.1587437620919,16833.588920941023,1729.997839555782,1362.26943967939,278.190588625284,2054.918852704008,-391.59447634411003,16753.155592531682,1732.065394060494,1369.5744344191376,266.5246307936607,1981.9825984329443,-658.0441770480926,16673.608974265815,1718.8154567438007,1384.7925991015177,283.10847746443085,1861.3358225741433,-496.03974833342323,16789.734825168438,1734.993494765811,1381.8016358099767,273.0203901579643,1943.5586449488073,-571.1763126129318,16608.09005828393,1727.2172334645452,1383.947481715507,265.47627312391654
2016.0,-432.0,16820.0,1749.0,1347.0,278.0,1936.8229127989214,-300.0288586420511,16787.789932199892,1766.2822036622258,1347.551322470328,286.60492927932614,1906.6820716885916,-472.7771819856505,16821.98301897361,1736.5651924402637,1355.7442796058465,274.2265815462732,2105.4940159817793,-449.0720397328467,16742.67105938112,1751.7177225612993,1345.2227868327398,268.1122533828195,1944.2671152900798,-433.39878786992386,16897.616114072574,1734.1276950169697,1362.2272301773062,258.3997143828685,2096.402275209112,-283.5429927061856,16860.166450814388,1754.9373945284538,1350.9138514573824,284.00098991447487,1960.1106503444994,-546.8599492957109,16930.36279174281,1755.565340363347,1350.9368436659558,298.24025289142816,2185.53129442157,-387.173286318967,16829.456377726743,1744.6539758804754,1370.3237545669936,267.51249099063983,2256.34208701528,-459.36856712611416,16891.914733166333,1755.0631501430585,1346.9174260284271,278.44016796674697,2023.3587091101026,-294.62503368564273,16800.04015544135,1766.5835828469965,1348.3837468240977,287.44134087911874,2158.7121856945,-455.01574462089684,16916.429132596877,1741.9734177503412,1342.2110992713979,270.1740551836947,2001.8259072854257,-323.331959587718,16830.564280500046,1749.0986963353982,1337.0065319972825,279.2561988646079
1988.0,-484.0,16888.0,1728.0,1314.0,286.0,1918.835214297231,-526.9713771972745,16988.021705919728,1735.6307495216768,1313.0331166504495,307.51573422082583,2075.83489839733,-574.7189002694971,16846.798574932753,1709.274968194647,1321.3786746037013,277.76168093707486,2009.0565809325653,-474.92674301771984,16763.09872415588,1742.9892036649778,1301.841188924729,289.10064762534176,1858.0334282461058,-317.6763773278165,16762.031586745634,1744.810831633596,1331.371787728267,270.62706576354424,1805.3612049049043,-494.94209733577867,16944.369784634066,1730.9925564910193,1319.3820832093697,291.36672446483215,1900.4996091791006,-476.57317265059777,16759.401179746448,1723.0580885439501,1325.174892032767,285.3648599855346,2084.4200546559464,-486.72278694928497,16854.373293922978,1724.1298142051714,1330.7799571570565,292.0145069590155,1900.8406897306018,-470.1650679398689,16777.35673438847,1727.3294534897916,1333.0614915174317,293.26515178264015,2047.7648603724815,-427.8699890435265,16921.67282085915,1726.2043091178316,1292.9232031883369,292.81248482174533,2161.3836275911654,-367.8408226517042,16922.530129276372,1716.0103595642695,1329.6638575516304,285.9517766388092,1896.31997262328,-320.49359044404764,16909.210383790985,1735.2164423931729,1314.833174229395,283.8588721023178
1976.0,-464.0,16840.0,1734.0,1357.0,339.0,1915.292080296982,-290.4797912139412,17011.589111548044,1734.8798751885995,1337.017700833981,334.6090956667174,2035.991405700717,-516.3737211802405,16873.025506777078,1733.4352994726323,1362.706750028645,335.05850791901935,2069.8726461272668,-445.61411028768805,16792.83045963424,1733.7490475910306,1352.1439354041668,337.3395463715171,2053.593235553716,-502.8045969600379,16710.543722370472,1734.73912829872,1358.9490618607067,359.8076030449173,1833.022724761062,-432.47317969156916,16811.842163939193,1727.3614127102333,1334.513233143396,347.36342763041193,1852.355578484561,-433.9095133181278,16808.419211565913,1755.2662557170866,1354.714863065418,339.9489197957064,1989.675015377971,-630.5398507294426,16870.548143482643,1720.7696411937118,1367.0506383356515,332.875015602206,2137.69112432881,-548.7237185843227,16930.94107893292,1730.6078292381342,1344.0540728126948,340.69767562996736,2010.7644376515846,-659.162672622115,16814.232313962748,1724.6915107224993,1333.2238483676495,335.67389204065825,1971.1179396694995,-280.78159374067366,16921.162442659577,1728.0081101448038,1352.1929214034337,316.48958704380345,1923.3560193157007,-604.4537140683021,16761.103635439806,1732.1295831051063,1351.5566774137192,330.06519464925645
2012.0,-440.0,16848.0,1746.0,1343.0,316.0,2043.1267790403424,-501.7896516369226,16902.055325148154,1752.6584809220665,1349.9993446182418,304.9985350936316,1928.1933647925332,-722.6560732906851,16900.128134943145,1745.9544491224283,1330.6142546965143,307.5634662029731,2185.0318264538355,-453.2755559481863,16880.68599147141,1747.892681643549,1352.129317659183,329.3776070050751,1993.6604991383526,-522.8704135545173,16624.272244862783,1742.9451222344296,1349.1838826963308,312.67115077200253,2039.1542175188367,-631.2195816084736,16948.890389390028,1739.3539856839084,1355.352870907737,321.22415643588425,1970.1352726501768,-433.3511741868578,16892.134277496578,1750.3577034583222,1345.6741633416036,326.0021422002313,1890.2609756070078,-305.9047537837437,16856.035072882703,1745.8395954003454,1357.7124057379685,311.7954531431879,2070.3035429322654,-465.56526998069023,17026.783784847947,1732.61529870725,1344.708264469756,311.2735705093024,2086.393159978649,-425.8194491415625,17030.109642076513,1748.1696180680522,1328.9616195048402,332.8687976636525,1938.4049918382252,-415.87144127358835,17124.074504156735,1757.8284169321616,1346.1190041371642,328.05223369801615,1886.581786417066,-371.18164890183766,16825.743087579223,1730.2717858576075,1337.5479995667858,320.0972732871315
2000.0,-388.0,16860.0,1732.0,1367.0,302.0,2004.3998931592193,-272.63597453517684,16884.13339093234,1735.52253830215,1379.7130195907973,287.9911176897857,1755.9037078362314,-412.641840641286,16854.780903129493,1736.0893395359815,1366.6518648782035,314.8601899271279,1860.6405348643095,-166.33602305054694,16928.610007884425,1698.7729610900756,1365.7684064870414,294.17433961538956,1912.6107395393697,-488.3605868453925,16967.953374447876,1735.1415182168064,1360.3508306753288,308.4165156851892,2001.0020422422044,-292.2794854084155,16790.11807769456,1723.0330833784753,1367.0779985576596,290.5462239235397,1987.2297001338009,-566.5504480348221,16936.62512892915,1737.0026779786492,1359.8771826869674,301.5867052507526,1903.641745337365,-336.9860685475003,16853.488677153215,1735.8581032673433,1353.1712869753237,294.09255756219716,1977.0914731704684,-249.55199047211923,16931.30089411545,1740.6555553835838,1375.4300690242324,313.5252220819165,1853.6729558038878,-348.0850892290059,17040.996944517676,1735.1348423806958,1371.1232801020178,312.9750891403394,2096.9607110714614,-323.20463163859273,16802.386897182456,1743.3582245044772,1352.6549904759818,309.24676602966406,1916.3078353306237,-543.8815089775408,16883.053781246334,1713.1387716296938,1383.569045568307,282.67842894879203
1992.0,-468.0,16816.0,1777.0,1372.0,321.0,2010.7593163089696,-477.7450110765928,16800.395362171792,1776.0764228451308,1355.339402558978,313.7441821537869,2126.6651180624885,-438.9963748187811,16791.304695252868,1772.6910359451915,1375.2843441431364,314.22028984609403,2250.1030296586127,-678.5316678108019,16790.45991544654,1778.30224407228,1379.4188902761846,310.786065271679,2005.470537251672,-371.5428241769788,16973.34053224304,1761.336539776758,1374.5296192342691,307.8978048175988,1893.6119628072859,-588.6533309880849,16887.033161547966,1796.2282839705654,1371.8661391558153,324.35690724378605,2027.2241810329735,-432.2367439209325,16637.06914077892,1779.9354549594605,1389.3866609991594,321.90349755423165,2048.0421953081045,-516.7474607338003,16915.54860579514,1777.3168032408405,1367.2523115844024,327.4711282652936,2047.251238661728,-444.1014550063405,16769.629192603305,1753.9265992295764,1371.3289718447395,318.13509661661504,1975.7731451302282,-553.0304620104744,16727.603403699075,1791.5796610531952,1369.7807336442859,325.8627839263036,2029.9178420775372,-356.307499257374,16729.932245551627,1776.302198791033,1379.1368905757752,330.3934008361256,1955.6025419287748,-639.338083611287,16775.485334543628,1782.6981998334802,1367.194478150179,341.67348480710604
2028.0,-392.0,16804.0,1724.0,1337.0,290.0,1879.935463751942,-426.52143807054637,16901.76877211946,1740.952852640563,1324.2674514992875,286.69885212755844,2145.4184924743718,-350.8715430473212,16909.153461163427,1724.1326889135482,1351.6255794499375,274.1851868397949,2243.5152211531254,-391.6654595340946,16720.03090750391,1733.1551432152273,1357.1273935229965,281.12058498467246,1997.2343508356619,-336.7649946563322,16799.3746567944,1731.1498862823098,1347.2824500121337,301.60994844519365,1871.1655781261752,-393.91869022959463,16940.936136588396,1703.619033229898,1331.865990201057,277.84405432467344,2005.7970459663018,-417.910090126742,16627.83266081537,1732.1036928082906,1330.258285030987,312.70159097501863,2087.6910604587697,-486.40691303697383,16980.303711874898,1710.3896051111917,1333.013858475713,283.00806118473093,2103.5325895663977,-219.27551177213962,16718.143794151405,1712.5229435640922,1347.0094429928654,297.6950600252344,2068.7066830387125,-223.14191174151986,16729.333713812222,1729.7574923236418,1360.0592873819207,293.1956557494825,1967.7911743054879,-374.0606886437183,16851.643731740092,1728.49964195263,1332.0675975931201,278.51302001702095,1918.3280824140472,-417.38169719880443,16801.294078553172,1719.0547498570118,1332.1716675853518,300.19758277186116
1888.0,-436.0,16788.0,1737.0,1314.0,298.0,1770.216158670477,-371.80634227899145,16991.865451939917,1729.9625932452302,1327.8817804034638,288.16668843575576,2072.3930395392044,-177.7292090052261,16841.25562006517,1748.8220765137135,1324.3942122436279,304.1773543862139,1992.2051953826167,-362.3089771781213,17016.14997617134,1723.0621453362955,1305.691707649672,299.2192228474014,2012.6872411973711,-417.102018073405,16522.7089784367,1739.918004711309,1322.5006891646137,296.9621793019127,1911.6412044485226,-396.166034909902,16820.055348926893,1738.0593429164778,1317.6755134460957,304.5915918705862,1921.5310668422421,-585.6428647636653,16874.063860315775,1732.7447383178533,1314.4359229574673,295.98823091385094,1798.0794395191742,-254.53513082585195,16686.557240567006,1751.6855160257667,1303.8109032313132,303.53984484630774,1840.6168120532334,-542.3969674450825,16869.09966633375,1730.5026063534356,1311.6359281050186,309.5985448632821,1955.0702770999424,-447.2695735692398,16677.409342077543,1725.2525821649485,1307.5393138458455,289.24727089619796,1931.04124841302,-462.98013678559147,16783.526876173262,1743.5114187917566,1336.971792060391,283.23838385946055,1828.775666051254,-310.0094493190861,16797.35555448735,1747.629238295366,1314.1320768099731,294.6116367790928
1988.0,-448.0,16828.0,1719.0,1353.0,303.0,2034.554469872259,-593.9175917538903,16731.950079066544,1720.14026739608,1354.7995255540957,304.08867007771215,1990.947336779408,-334.05802092676856,16772.281719168295,1718.889756085655,1345.2119189608982,299.8711296512409,1961.7868777454191,-722.0548852151423,16844.712976977917,1727.5795177886191,1354.3377984718952,302.85668727000615,2091.4852468443055,-554.4218436842696,16993.78936336903,1708.816792579587,1357.8325356758812,316.03195374880465,2120.4638422999665,-468.5634105239052,16795.76175963772,1717.6707543109353,1361.8887135547077,303.03922606960975,2163.6455841539037,-433.9551888287324,16840.200995377723,1706.097564233709,1367.1085889668018,305.2905891912254,1960.0838863139204,-457.01589577412466,16868.203841202285,1712.9488712154991,1365.860176121394,300.67691999313496,2146.907308326544,-510.12923886576846,16954.103850597967,1725.8344906012371,1346.6074160266087,300.8669460341108,1960.641849421275,-261.216832950531,17054.00992772861,1721.6461699954616,1349.0212796094027,290.1815378978489,2078.1800849187443,-554.1987241099504,16925.692644097107,1709.830345160471,1350.3896723040698,311.60264337201704,1983.2652925436596,-544.3606899900566,16811.527081316824,1726.8848495510417,1353.1075338258274,310.08778310516533
2044.0,-436.0,16680.0,1741.0,1371.0,290.0,2137.8912590487007,-491.10697111649586,16732.257326321644,1751.025758517,1381.3558290238582,298.0255674316402,1967.0420275302245,-378.5212430471188,16838.89118316321,1732.1772335960195,1347.2472676524121,300.7311921303741,1908.2537049868706,-591.2164417545462,16770.37519432168,1748.261360358641,1368.1119636437904,294.92956470855546,2063.3112905903495,-389.6851071828392,16802.935000804562,1743.5879481541929,1370.718241026177,279.50770817700436,2044.8289698196886,-317.3651701502094,16682.035830410492,1744.7828168605606,1353.986894770418,276.88816816925646,2051.3502902723144,-338.9700673075873,16691.92875818255,1724.412066282881,1386.391881834017,287.30248378496185,1935.8685357027352,-325.41972723301603,16791.55022484838,1751.4067546493063,1367.1656417652482,300.5540459106521,2077.9338105188467,-619.6711558303705,16570.30940199403,1738.8813019848515,1378.4408453962733,282.6967162629746,1824.7745291035342,-418.91356536739477,16612.34375592914,1741.5251502072217,1381.8124160668171,284.907273773031,1758.905811316263,-362.97391823115026,16640.53237052528,1733.1343840969207,1358.4747835594465,284.24566744229156,1958.693132658988,-533.9056308206682,16615.347829245184,1735.9061795764849,1363.1619247935005,293.09226928907873
1836.0,-480.0,16784.0,1745.0,1330.0,316.0,1955.2584788692047,-337.97743516648484,16770.49369739735,1735.4071174195494,1318.6520379746514,330.08193107015666,1888.1206053838255,-661.2034624044594,16824.801231262565,1755.2571035351896,1332.4893353992443,332.3612067428507,1756.2912803026077,-550.3041553160617,16924.130262896382,1714.8468955122703,1344.8721817461483,312.6666864257565,1864.1604349818315,-464.6320980401809,16808.47754716544,1724.925575258053,1330.033338041696,328.0693863712025,1787.038317788323,-397.9243542191297,16905.53502373073,1732.8177758216575,1331.0894951399425,314.68387211272625,1769.7443140468915,-566.1006278653365,16929.13753330912,1734.682170005429,1315.9211479241244,325.47883328203693,1767.5773379196708,-565.471081243163,16812.85893329751,1745.6932674781567,1314.8296791836906,321.5230135709725,1942.4490135908547,-504.8315832946833,16819.458909942652,1725.7603737007666,1321.9949169150018,319.5575365641838,1720.037251263685,-546.4983694167931,16738.333678976862,1746.4300155775934,1353.7146504142197,308.2381902757265,1733.6957825678992,-603.9418191966653,16575.17687007498,1746.4512198040254,1343.1074987090003,313.12889937861604,1750.5232876333782,-295.16105829468825,16830.089007336956,1753.457927198057,1337.432246137813,294.2565132328276
1948.0,-444.0,16856.0,1768.0,1360.0,323.0,1957.930278310526,-343.55706184569055,16855.496601926407,1794.3961168435758,1378.0571966748635,324.66358007234777,1887.0591469059962,-378.13901460378713,16812.237294959665,1754.5959002457423,1347.725094956022,316.5510976470939,1979.051308088664,-591.3808942442141,16862.902050220637,1772.8480691963346,1362.8165537501075,324.31386433598124,1972.479110210877,-548.5670074466334,16815.662449121715,1770.217499404114,1382.2530348509447,314.713447535636,2002.5421929024405,-352.2446742840655,16935.292885751554,1772.3361398961765,1353.9101916677573,325.64876556952674,1691.8858458893972,-469.5490532992453,16814.452488655563,1773.7200268933798,1359.7611931056654,346.44461976018187,1791.556512550617,-500.17130439727845,16977.959907981058,1770.0955854431716,1358.2898216427739,344.6640280218067,2002.2015575411476,-359.9971266242135,16893.977963432757,1763.9451701669782,1347.3248876405994,323.14271765989054,1947.85782379194,-372.8282933948675,16965.665099559006,1767.4285370091911,1375.498583239221,321.88229249968145,1830.101263725225,-412.18701652915775,16859.645718274292,1766.717070613622,1353.2212636730803,314.4935153250615,1939.577260486548,-418.2401292289007,16782.005185848004,1772.07571132859,1341.2533192905737,327.31341868779316
1948.0,-452.0,16788.0,1722.0,1347.0,298.0,2009.671939007539,-493.0517739179724,16655.843914241374,1726.118568282961,1343.2664544122633,297.9621230044656,1843.2311663134005,-481.52855748673073,16788.061893279675,1723.115574442345,1339.6067995409628,297.1713648985121,1946.923554970883,-292.0255741214395,16959.940937646166,1730.5343301822365,1371.4747004325357,288.4299357023941,1981.7887069573867,-483.94545227315564,16757.70189937818,1720.157685333509,1351.9549820550506,297.6296738180952,1918.985507212546,-469.51041502377996,16843.643424219168,1721.3913539241923,1348.2420835880787,296.5519941720056,1972.166967268691,-323.821333006294,17006.19739147025,1718.646226332268,1340.5123340811397,284.63761850811255,1877.1410982788755,-419.9740459652272,16918.542344384306,1737.215895642795,1360.4259504853699,310.90338123560207,2063.1822809687,-455.9448914762865,16855.806467353577,1718.6547901163638,1344.1870244211307,305.80608368998526,1937.1938666414069,-371.58033299668193,16855.286659043548,1755.349191676758,1331.9652401464105,287.23991815299007,1955.3174806444258,-483.14991308971906,16666.101778901175,1709.1780668374727,1356.012141044623,298.94718670640395,1855.8804950194528,-366.372539935952,16837.148152301223,1720.994334918678,1341.2751672188167,304.73782976018106
2004.0,-424.0,16916.0,1735.0,1366.0,300.0,1965.9073325807858,-374.22194802244314,16831.715568064144,1734.0021086251325,1374.2254310933788,297.05013316479585,1934.003358524391,-327.70820506139876,17158.738232670607,1745.3788511763862,1389.882869443775,299.5938162197088,2051.785626060175,-423.1384455185572,16727.586159578954,1736.5350271597376,1369.178178112915,289.57726269043917,2005.0695387588119,-380.787523025787,16941.12388466443,1732.6215791197708,1377.5543210466499,302.1383379482174,1869.397202684697,-329.0576338654901,16792.66965849332,1725.9083143833034,1345.50857376609,301.6810713495909,2004.9905265487484,-380.85594074402536,16925.144303453737,1725.2170107858472,1362.6758079455783,315.4420590984719,2035.8854369041317,-414.32999624965095,16967.09038786739,1732.070481631059,1364.3120431727516,308.2572097177573,2126.610637059011,-426.40316930009396,16929.70397002911,1732.906748238897,1356.6093987306522,304.40410252465693,2059.283672101078,-473.1561592159621,16923.028427700934,1732.056956910699,1380.9779909532892,289.793236132119,1888.6334874414374,-505.0823802495487,16984.476996327932,1733.6228712949269,1374.3295527295695,297.07191446556953,2031.624510226742,-471.31992021229934,17118.218367581034,1739.5865734056877,1354.512017843926,314.2975758078645
1984.0,-516.0,16792.0,1747.0,1361.0,285.0,2010.1662121141098,-622.5868549583416,16895.503934989156,1761.1132443980125,1372.0348626092548,286.45155583817956,2044.2178559169831,-627.510337499837,16830.700744568643,1754.5290920336065,1377.3558459132855,289.6856845289623,2003.212209690715,-534.415438407073,16739.331795501093,1742.6399710486764,1351.4308147145714,276.05536657737656,1886.2089310528904,-514.4111397178599,16880.55688558211,1745.1674506082702,1365.8858463160057,278.2682139714872,2063.480785513348,-680.2444444743112,16740.57980328158,1750.5473780117588,1374.0230498860337,280.1469434770388,2001.395899568006,-506.43059929163405,17002.663621520936,1725.9264812364252,1367.7468023551007,284.6070888347579,1990.3338574569816,-477.1825374380912,16937.700495973397,1733.661959966913,1368.3711771915127,283.32288593216794,1906.0314674470437,-320.0148028601404,16861.914863154085,1730.466078292822,1346.432417190573,294.8681575635532,2048.6527763060976,-588.0921644198713,16830.043924989313,1756.1351258101124,1376.285623364442,288.3227544415147,1939.0573571112036,-510.7763700612929,16719.41914789697,1753.2133615423515,1352.765170090024,279.97919430121374,2117.4404713103245,-614.914711742059,16913.99895779179,1752.9044390147353,1363.2756654889063,284.07891357992037
1980.0,-412.0,16844.0,1765.0,1355.0,327.0,1957.7316548849421,-484.24564776365423,17061.551812880698,1766.2063193669326,1351.4174594783644,308.7358996654796,1730.3015932539256,-552.1417335802448,16973.20581388308,1749.5251568053195,1352.8401223204248,324.13192592294797,1953.515292888572,-173.17023479363078,16789.368044206985,1750.0251731271865,1369.220192327945,327.9231709644586,2117.499557980285,-390.3867338539394,16805.45214262139,1773.1696359117423,1348.3087451136894,327.9139754905822,1914.4578177327037,-416.50755310162145,16922.155650041663,1758.984065957545,1359.948134686615,332.7507290758593,1960.894710952143,-559.3335606815197,16834.390758445938,1766.5489526033125,1357.0367260041546,312.5655085467892,2122.3434330873224,-365.82670693609526,16826.311867805955,1760.9797548262684,1325.4803899407918,313.6755426397542,1967.4817597008202,-245.03822241894943,16784.11449436363,1761.5726313076955,1357.629090726443,312.525682254837,1983.3451300584998,-462.11063683956235,16657.73300593273,1786.8204486179566,1347.350940025927,342.50086178171847,2126.0021310292186,-475.9689776971239,16966.203977039495,1769.693266260501,1359.1822749686028,330.5898455701642,1922.9695644486937,-420.62902848646104,16850.932786298636,1757.1900487973423,1357.6810841532736,322.0959577475569
2020.0,-516.0,16864.0,1737.0,1394.0,293.0,1978.088147894099,-513.9685845483385,16883.035225066516,1737.4728351727929,1389.7541736406044,292.6456706267361,2185.445770892705,-591.354105938711,16931.275007177253,1732.7421224536038,1399.1553953215564,295.17973963817224,2056.754421800827,-525.6425305866062,16921.465528992438,1742.8072733939248,1413.308747725413,293.2073064391343,1991.9296348797143,-516.4400758496861,16825.977892643125,1722.1568163716288,1388.227170741387,281.6114148499619,2049.9065073304214,-588.2120025335646,16924.213145192,1739.8585854856924,1385.711719374468,314.64274431259963,2109.527579972486,-347.86809670760766,17022.14847590134,1734.0546867354499,1393.2592157723927,276.12872992588564,1913.3471457942153,-560.5297167541689,16942.29048532095,1755.7781350253993,1391.5324857343132,303.7142341878024,1998.2578643905742,-339.23284572786866,16911.2995327123,1736.4991498076074,1405.2016876534046,291.93465948939735,2036.9696929643355,-471.94383786492267,16923.345363344066,1737.4324663009286,1389.507571874745,309.44799129233616,1942.2147613140367,-367.53436929711074,16841.153683074965,1743.5894576354178,1400.857581863711,294.2595116161273,2092.8008768717505,-659.80652416722,16799.450728654752,1729.1009894139866,1398.2033893508617,294.3021416320057
1944.0,-544.0,16940.0,1753.0,1329.0,303.0,1978.1199396446857,-596.2416066958695,16918.8058119979,1747.907338362352,1337.4619516482705,312.2438201702889,1936.8053939310491,-611.6434253442169,16957.637140858555,1758.2971518285551,1333.13744332882,294.33630780175423,2018.4244368110624,-419.8282285799627,16782.310766778348,1762.168818027791,1340.45628487958,292.9420179442369,2079.8234158927894,-592.1633764963202,16816.191048468347,1747.331090963395,1330.035160754737,303.43631376660034,1933.7686748973636,-550.6719078819025,16910.89586305846,1763.7559520138548,1311.115379465414,301.24501148829455,1882.2367102955511,-434.8424503771285,16905.513664369366,1752.80416888389,1349.7643501563105,284.448481226501,2138.0522572517516,-452.93177072991193,16743.214701652316,1772.7344465788415,1324.5981021209732,295.2132233220377,1970.4824419290615,-568.5100760966552,16873.519126675426,1762.6825902818082,1332.7040795174205,301.0976755069409,1972.9271893929592,-575.4841482659941,17003.800265010916,1735.3970156838934,1321.9370264450395,296.55766691686875,2110.1118942908433,-641.6289667029585,17016.338638273624,1738.6493059032239,1335.367498963547,298.79659196601585,2074.2161347807596,-502.5662489928306,16912.08217485842,1752.7275309190218,1338.2401060321774,318.94438567248454
1980.0,-456.0,16844.0,1770.0,1324.0,321.0,1938.296129407992,-480.9724816032095,16952.29071707198,1757.7212037373977,1331.3816130848534,316.8750873822029,2084.2028729290837,-262.604118886103,16805.3243911923,1764.1233737696134,1318.7748958465895,309.0423016089364,2056.227127773409,-508.51428071851103,16938.18716685926,1755.1910889852302,1317.677884128795,336.279415371775,1817.7386851471015,-376.5527048651931,16868.369854783658,1776.507694390035,1310.993700884456,326.69005812346705,2024.549171536396,-552.8043180339661,16653.735452347635,1782.5858228172563,1330.958242242828,325.37889825597847,1806.1404671849673,-444.326051990939,16823.564662988785,1771.6449970879473,1324.0753793659028,307.18259727256617,2016.5742277891206,-759.9791461004478,16759.104173313786,1757.2963470542736,1322.511822125238,336.46168618661795,1936.6155631616234,-474.2958757251983,16888.813361845027,1764.7160640809611,1337.8332557961949,321.27470320854684,1919.7617018287442,-527.0093825498582,16979.95644461398,1756.3775213471185,1321.1552706505704,316.9693242591871,2011.1290449066967,-196.3957631187448,16834.227300609014,1774.673118361733,1335.6138124973281,339.7221625916447,2072.0812524567245,-459.71638330195475,16686.184881180136,1772.1685537510634,1315.0272203521886,315.25365493652333
2032.0,-448.0,16852.0,1744.0,1339.0,302.0,2156.133861900749,-428.0797999676579,16947.434657291273,1733.3978202188932,1331.165476887283,319.8813172003014,1837.611005978903,-499.38734949992613,16586.44372354077,1720.2753041295887,1327.2515872862614,303.38302541654036,1822.1676183257964,-245.1992041588808,16939.326013936072,1748.8484274880798,1323.218849606297,307.35098637343475,2155.4695868122712,-424.7960292904939,16929.61847150776,1744.3776197574023,1373.382729542533,301.91551747463103,2043.3563148030876,-330.8337556350358,16843.075556726184,1748.4156517475494,1350.9051926179447,304.0755567382456,2129.5222291508753,-582.2318444260818,17016.31764351395,1751.1225116279647,1334.30361262304,309.7376879050444,2038.2570055843805,-737.7495538928097,16908.18403544566,1735.867832263039,1335.569232076482,297.4473846232234,2055.5365298485754,-389.0734642602193,16826.930155824306,1732.901030990341,1343.560628754474,296.7439018888468,2012.938598195217,-688.3876263204411,16745.05649236206,1741.0341203284972,1324.2953838832264,300.45928577614563,2178.878320205904,-650.8551289724319,16885.34332591535,1738.383220939156,1342.927278778448,314.34892614323417,2001.54270550218,-440.673633001,17018.50244420512,1743.0318705259788,1339.0606280857294,306.91555813534626
1952.0,-404.0,16804.0,1748.0,1347.0,297.0,1810.1791952935234,-431.01988460727364,16926.378973602943,1743.4238362068725,1334.8381303521521,296.54655265930313,2058.432410074418,-448.9105104702288,16912.099076892224,1744.9240874337302,1360.6563271574137,289.9798926040413,1922.2341126276328,-337.55085957220734,16908.38857905736,1764.6934381522935,1360.959714046025,276.1812735121001,1896.626321358372,-412.35869979149714,16920.61868798703,1759.6927896920379,1355.2027731683465,299.2588083991622,1881.2908435312045,-311.7907037720557,16750.450187876257,1741.9432152408058,1347.3966965358736,302.2719562960731,1914.2442676756057,-386.785751550101,16781.14710393382,1752.0329218910338,1343.0926495895014,308.63057621966874,1945.360716420467,-175.6160824205347,16766.338220353355,1759.9023279169005,1354.248748892795,299.5723360858681,2029.2440799910696,-420.7571946937763,16808.048541501797,1745.539153815943,1358.1325295734052,294.2214576429689,1933.9830807724395,-243.9524509542469,16825.961422828117,1754.994072412212,1336.2177679325914,300.293181373604,1983.5146561101783,-477.2487702010844,16621.648150179204,1760.3583080763262,1352.3995798252085,292.0339720153458,1991.2074990946683,-369.11968264910513,16664.379414941395,1755.7119262592769,1330.7567257432847,308.1913170805465
1988.0,-408.0,16828.0,1724.0,1346.0,302.0,1984.8352286281886,-476.7176851924885,16852.36961209583,1720.9681041708986,1323.0139546586863,290.1289765951567,2042.343600386697,-462.514112088367,16805.03322554534,1726.2472877143657,1345.6805299182085,304.47189282109304,2119.9801845555844,-444.93280672761705,16783.207120155348,1725.1793340647139,1346.6745305212971,291.3537626981628,1778.0671892654198,-272.20647639335476,16945.889254992802,1721.80390535755,1334.892297292879,313.2296371157291,1960.734510961815,-535.4941103234057,16795.293308568103,1726.1070572869535,1337.1796953373994,308.2362705810963,2001.9960466945365,-290.7602537852251,16893.967081029932,1721.153460484617,1354.32273873034,319.968227822808,1925.6966417243461,-296.96676396927256,16647.96078018809,1723.050630461244,1343.2130376283048,287.4393058499594,1946.6485625662856,-398.515646807241,16767.067721461546,1742.4307145862222,1358.5270480625436,303.6312978965387,1999.1745385446893,-435.74947139327395,16904.241962191758,1731.2336131354177,1356.2837743362993,294.5053319674556,2043.5415163993573,-392.61029044401016,16878.178561355046,1717.6851209982665,1350.3853747366934,290.9437500576725,1831.1442113519327,-428.7748672244413,16690.090959159985,1723.3526476607242,1361.640425619788,310.13466015423603
1992.0,-436.0,16988.0,1711.0,1349.0,290.0,1976.7265335529537,-513.6037128166217,16798.1692165984,1710.6894725486038,1355.7404797951397,284.7208012444486,1900.4205086191187,-481.1864099335624,16910.899182982597,1704.6158207615135,1355.6338712098016,291.8521407753168,1958.1422023858279,-444.64739553927444,17053.173745317574,1724.643181405818,1347.3876555112904,281.0702758461252,1964.553491246146,-440.64158748549056,17057.280190212605,1705.0411449955723,1337.7429651354266,303.7271730565193,1743.692340248375,-346.22452232467765,17198.360138607495,1707.0540362868421,1353.1987920143185,293.2414321268742,1977.670600980833,-461.39716059696485,16755.623209438858,1697.4381431821475,1337.9716984998677,281.5734728563622,2061.200312977666,-613.6281962078427,17003.941702921627,1717.6709407762205,1349.1092605226743,277.34768120309565,2087.339174675108,-376.1118943689219,17050.409595174693,1715.5216875455455,1344.5008296292267,290.34672609340913,2029.9169714465977,-630.6254668453199,17028.49439167403,1723.064401921937,1336.761153675301,293.82590241114696,1958.7501318459038,-404.18035720924314,16972.226308440193,1731.4651740775714,1344.3492213105424,299.91822138543944,2153.4101953014297,-526.7774631478544,17084.64785258994,1718.38118948816,1343.2879086131013,287.3382194920869
2028.0,-460.0,16856.0,1756.0,1334.0,264.0,2037.8273016685462,-488.34638807065085,16721.803150116768,1744.5642664039046,1330.3385298416486,264.8488616921584,2102.9288153098296,-524.1777893600117,16798.087568045787,1758.3897284119178,1346.1356877241785,261.1315675963483,1949.2537800625269,-363.3933509276775,16911.37516073972,1759.4068589587753,1337.0348497286122,267.7762158223391,1879.268998914715,-418.24652019059016,16674.325605947364,1744.4587878001025,1334.939451788402,272.20679355920925,1796.1378617503333,-658.9976380292197,17067.051911234284,1774.9949504342055,1349.6492601317232,264.8133245969646,2028.5184859217923,-520.0711615350618,16984.681090285158,1768.5757193426264,1310.9140141510884,252.6847699457101,2118.8065836386313,-498.93829234953654,16674.206304338622,1770.1957260591894,1337.4345159476536,271.1305922307234,2143.507802228316,-458.8838805643289,16777.086071401576,1752.2377164743123,1330.5561270248847,258.82721804231886,1871.7047835474466,-444.11891512999887,16780.813495087008,1767.961309428511,1343.493831034379,253.69939009639683,1979.6368986860673,-562.2178362153751,16970.92522094846,1770.7130624431236,1339.2786916814168,255.79277315810342,2102.8146867200085,-697.9259014467535,16700.95491341041,1753.88400925535,1336.2963144736188,279.3259720224737
1972.0,-440.0,16924.0,1777.0,1364.0,321.0,1975.574667973565,-566.0803178080918,16810.009796513918,1773.524223616189,1358.3681254719525,330.45407121908755,1686.0241272541307,-579.4960306369318,16993.413009725533,1766.2813209863407,1367.9209437071615,317.9980615959051,2119.5791420952605,-518.259000393668,16967.6151330639,1780.183075987305,1363.7320090914852,326.3607785047563,2032.6476254415363,-282.3752642909001,16930.909915093947,1780.8046189742042,1377.601126119171,311.2279848463315,1866.3270476821672,-405.5034617136674,16843.224131029703,1771.771450724857,1369.0433214306775,325.52069070818925,1964.1895607712647,-386.91181973891435,16806.124931675684,1759.7593370905213,1363.633429373607,320.261083684846,1825.5808921166072,-125.03832622626612,16894.72946889853,1780.410545516458,1371.3659689602616,325.58502630576777,1902.5068408694933,-453.8516803110918,16830.430719063872,1779.964228532006,1371.9695201106776,316.025727702152,1945.9718173999427,-480.464858235998,16935.526442238985,1767.27248126322,1355.3138727416938,332.4530683089321,2017.6514152977848,-498.51025819531617,16802.975260779123,1747.8277334323946,1368.1086349032344,323.45399990026584,1975.770303874881,-220.3674001237646,17155.61048660964,1769.5662321116695,1358.9777879491223,317.97907484215347
2060.0,-364.0,16840.0,1743.0,1367.0,319.0,2242.3496585144067,-339.3315945215458,16671.511439300226,1736.5014884946138,1362.5510689760927,320.54285882064767,1997.1892537673723,-359.38692774961606,16910.693076704865,1755.9091772121608,1370.233356482666,316.6652301521044,2286.009354608459,-495.13114059982524,16947.21789730131,1732.578695139873,1387.1367335664577,317.4626005478251,1952.522781952619,-529.3788486332724,16966.297101341508,1744.2041149923741,1365.1337905658588,323.3021808355003,2083.775081419665,-494.0753273967209,16830.81193504494,1736.7548446870107,1361.6640683318615,301.61066801931304,1994.657423036658,-418.00346868399913,16682.829882348015,1748.253829495541,1370.472751040157,321.80708650227825,2122.592357405708,-599.3260735172234,16672.289142762813,1741.1943903519602,1381.5888186122093,320.13998719818926,2144.9683177056804,-322.07714647650766,16865.803870054617,1739.7169156284044,1376.8867598221577,338.3087163929089,2205.2511611330806,-283.79222130662265,16703.25344956775,1755.1388888345455,1363.8609654072227,308.2467248299856,1979.201478634341,-286.46877320243453,16717.946941915652,1740.397379189577,1355.078911144056,320.16596887161666,2119.8680717472407,-295.6807435593102,16671.63513583431,1739.6952029580518,1353.0588090500996,298.43719376210333
2008.0,-440.0,16824.0,1732.0,1372.0,307.0,2096.1442364845616,-368.5263587352331,16726.321058904276,1747.2741126836436,1357.1627742774708,303.2262958343404,2031.9394894347759,-255.8776295229073,16946.1489728813,1741.8389107352955,1384.2670875931265,300.1344861009106,2005.9050306557244,-406.3567231526081,16901.65325367991,1749.7751679127823,1375.3107603354126,303.48557831297916,2077.4633604257247,-492.78586493556253,16986.65066303786,1719.2242447535052,1381.9170415812882,294.36260031106315,1948.946740559366,-383.2214773450582,16925.546995710873,1731.4131701108986,1359.294349029453,295.9288303888901,1939.1896648442598,-472.81547055809017,16973.82927231431,1729.2438675536575,1358.5513383013492,300.196166605189,1884.8761275630927,-556.637991228928,16935.206894108167,1735.305584598246,1376.411703552871,304.94504287775317,2149.2389757630617,-240.59740209083995,16874.847737953307,1723.7132426641456,1371.3422170387512,322.53525411301905,1994.7937004912656,-514.0837159423344,16820.535157651582,1731.2658143054166,1378.0262943361986,308.71041824259413,1859.1021289720773,-633.2995574076011,16944.681965099327,1729.6664001560257,1372.2431378547703,294.62768485180004,1993.9766289439565,-351.20642269383984,16630.186612698995,1733.844383549742,1360.3430148632528,324.103236689215
1956.0,-476.0,16804.0,1738.0,1355.0,286.0,1727.3030903699637,-346.39707937705975,16794.212876572212,1748.1758951536644,1369.110049989272,306.15964593824964,2084.4230654677394,-341.34731988191265,16774.36847769247,1732.4464373558078,1363.0016835633126,305.65324415105164,2113.65538520186,-635.4403612430563,16802.582117778118,1754.7859635482519,1355.6026616939562,270.04636771880547,1922.5064604497884,-575.2074576685833,16805.3633212392,1745.488522193328,1348.4818670085679,295.05087162433284,1761.9583827473984,-349.7955781905007,16710.125974539715,1743.6438875216352,1351.7850536113729,278.0585963579844,1902.1892917247903,-461.16744847282916,16829.30852580965,1743.3059646783959,1357.217616970859,291.654017580845,1780.4400095738338,-400.11488035758606,16814.274281137376,1734.6295767533866,1348.8153246078102,288.164246580633,2044.0603124938248,-411.16181900265457,16782.014486350297,1746.8304944919444,1353.6503056685394,304.10288080586486,2038.7534815946183,-422.0588921640356,16737.050855195568,1744.98232310621,1352.0439859489616,257.9478835713976,1953.6107749942278,-563.6890038883666,16603.69778456977,1737.054603947804,1365.0357116806395,282.86808574270725,1988.3095668566561,-409.0381879241576,16808.57723315432,1740.601472900536,1337.8145785926135,278.5113055646223
1948.0,-512.0,16832.0,1717.0,1340.0,307.0,1938.7414434052769,-507.10461484619253,16845.963139721665,1708.1068302877623,1345.831168917725,310.10813235890566,2007.5888056429203,-453.8627963545258,16746.46909294888,1727.0691587026795,1353.1277082611807,309.627723188239,1735.4684153673907,-387.3186127748248,16904.56308539623,1711.954868479578,1326.640436840563,302.8795284049395,1881.3356015922218,-552.3089914073499,16802.046664704114,1721.5789373023067,1361.1339702172359,292.61258756755956,1971.8767016164586,-458.0350177674878,16974.70740692682,1715.3708200047674,1339.3918561714925,313.0300900744585,1893.115664616143,-328.7609933067957,16776.02391861402,1729.2938932717605,1347.914916746376,315.6241670893769,1993.6387011791087,-438.3493810375494,16708.18852355786,1708.813246370347,1344.6457419148626,288.95090859056216,1872.5646690105673,-473.6836905009036,16880.082567032026,1697.5636480946166,1340.5209084776732,305.62944771065554,2054.926986227329,-547.7524566950085,16946.78182109097,1722.700091471309,1329.716974034943,316.15663604450447,1943.5471731200248,-595.1225325315143,16657.902832119238,1726.5246662489049,1343.9472866028977,307.88698126942217,2036.5833958744438,-421.1342376179319,16762.956623136168,1736.0777483894692,1343.5807994729373,311.3260119107802
1968.0,-452.0,16840.0,1756.0,1338.0,306.0,1787.794388466459,-416.4194424824757,16866.205881053927,1743.0114815406184,1331.2196371703978,311.7795297563315,2077.0954032057316,-430.69458045232807,16903.226430731454,1732.9025983669083,1337.0273584402873,312.94000808654806,2097.642078696214,-376.7913797712581,16809.613852402366,1752.5552478266493,1335.9381269758987,302.95607908421346,2013.2144017393746,-597.3603302154779,16810.400373211214,1764.8147548452002,1351.1617370109047,294.88597111114177,1885.3005532557663,-514.0590345081737,16909.22514002635,1751.370172094155,1332.6277947950032,312.15787680322177,1957.9362592821897,-296.8502202812788,17004.562533635864,1757.721293285022,1334.8394622162284,295.86689197198274,1819.615512251446,-389.9487051848232,16632.882822191506,1766.2934222560148,1326.5741974738803,296.5294140701781,1957.1949279549706,-412.3016238948356,16781.769134560178,1737.6221582640499,1341.6294123151947,298.4564918265066,1914.1964948788461,-490.5583497664555,16988.3256038473,1770.2506827832342,1331.4453531009424,304.68913776910165,1945.93340737784,-460.7698755842183,16847.951138055992,1755.8613794408993,1352.627953338889,304.5291578432119,2013.3236272470838,-425.2221613414198,16803.7824484215,1761.0503073756001,1333.2968245083484,308.8334306508388
2004.0,-448.0,16892.0,1732.0,1387.0,275.0,1980.1573855848642,-520.2286324169222,16886.073808754405,1730.0539275563592,1399.857561523312,260.476611503594,2052.0736537773487,-404.2866795708162,16767.68361599386,1741.4169287717677,1395.3892646665324,263.4634354159121,2018.4024994617025,-478.3470630935468,17193.573571175177,1729.7701228693354,1377.257086190602,272.3127531893843,1879.3281341291397,-568.7199834405014,16667.491077554583,1732.6084430716712,1389.5569164848946,272.68809792775676,1982.1969208445028,-338.21317311665865,16865.949355115266,1725.732250113433,1381.9103857242997,275.8096134173485,2128.3916881710666,-599.9081151982809,16932.73727104946,1740.0007538197747,1382.1855684297234,269.3175916553422,1981.4654527736113,-406.38725568080235,16816.18960920245,1718.3762684883839,1386.3998995140034,289.32342322714686,2074.811040079641,-599.9192919347418,16946.981009701194,1727.1587301564068,1379.624263162451,269.3933731086095,2130.306566167545,-276.1595361024872,16923.428794032407,1734.2235515963603,1380.60213572144,283.4319850777404,2128.796954163777,-525.070740922503,16928.920336204406,1725.6162226265187,1397.0961203684653,271.1771284865523,1964.0528226511858,-471.4927938956183,16745.190949193577,1719.7191768557127,1382.8007765826262,274.05888285450703
1988.0,-436.0,16896.0,1748.0,1379.0,275.0,2023.593453877648,-473.90114392430786,16899.72119182712,1759.8693522882943,1388.9185467672899,289.9842230897631,1999.418612034899,-375.80754299057037,16838.788382645253,1739.0935338090194,1366.9925762538205,269.4220803861552,1950.6280479900447,-373.52010566881665,16827.827169310964,1736.3260635119427,1378.1296062399279,293.118135201116,2027.813796785451,-499.07633229397675,16910.449198521157,1746.4680850881296,1398.3031895137735,272.5415773176181,1962.8246786532018,-540.9961962726794,17050.69097879635,1749.9794367286265,1388.5336493477068,266.1986847615242,2083.76365119133,-566.8136415253462,16770.31885933355,1747.808198652341,1386.0946997548128,273.1766695017996,1907.2162539354983,-485.36432993377724,16870.207195581417,1750.236880745446,1383.4857966704694,264.9791326650368,2087.2385159688674,-535.8086457397802,16849.923099976622,1756.2024922316125,1385.42276132116,252.25196407117255,2012.2918730464357,-476.0070579748336,17061.29855603122,1748.4689658072548,1386.4065308175734,275.2759884046954,2126.5050615357723,-398.2675106537157,16911.092520295868,1749.6702634204125,1366.0148204253971,278.75391389489073,1945.0053794573955,-454.26743491050837,16848.0525044345,1756.636151839723,1370.9856459468783,266.60652738381765
1960.0,-412.0,16772.0,1743.0,1329.0,257.0,1862.8465487426042,-290.9091487807416,16740.112254093663,1751.7770823124667,1322.226562203627,260.46949370152265,1908.041072977471,-382.60046256079954,16761.80086617352,1741.7736388222422,1331.4696626764348,265.22125104487037,1852.6589785228723,-276.23346571220384,16734.28002782621,1749.1528712046468,1327.3235523772119,252.2908898797593,2039.3261960738164,-681.1073707240228,16830.99291202343,1730.2856864769965,1322.797137210441,248.62532112551736,1855.4602624304102,-413.1139478209396,16746.94846022971,1728.9444311863615,1328.3118423217886,250.31238358551343,1835.3566991116443,-365.8412684170068,16721.673745412696,1730.571297083872,1324.8072302215987,257.6344632264237,1858.4203054099307,-412.69146032426056,16735.40715359218,1746.4844899008147,1320.8134426803113,257.2851757127766,1940.293914870679,-418.0452824859214,16843.19793054063,1757.277746048938,1321.1458548984303,257.6895342522192,1920.0204249870692,-295.7081479235735,17020.38704893732,1754.0666428222612,1329.7708997119323,249.35142594769002,1794.5028690710742,-436.17431751112656,16926.36274327857,1713.4640339254063,1312.7495287967183,256.09380601913125,2093.313593276564,-327.29899068303405,16958.093005466373,1754.0087601662867,1331.4694756370811,243.3651936419945
1980.0,-408.0,16780.0,1695.0,1335.0,328.0,2115.9688508770064,-458.5102353822992,16603.561918729094,1688.152363599941,1345.7133632997293,316.25086002982493,1936.8663356685934,-315.8336870452849,16839.32869599912,1695.305014198322,1329.9562374171242,327.14162569794087,1750.292337654719,-383.52867129352256,16899.971413095765,1701.5783907942393,1329.5999731479988,328.89895054493064,1892.0127667847084,-404.5573669556815,16712.75604203264,1699.7479369315352,1345.4334058943748,346.4277794856257,2004.5516152732885,-323.5587679287729,16885.84063921825,1683.4194275481434,1340.0363952467576,316.91400872635086,2059.499657926615,-575.3544400583853,16835.443965082904,1713.3057955737002,1331.3595638574664,331.61460567469516,2045.3690721903306,-440.06844863761546,16704.05508013838,1683.9052516666122,1348.6582676403511,328.45150461271186,1917.9568506580028,-287.3005991088334,16975.681644462362,1685.5927688198635,1330.0766368406084,331.4665748808575,1917.3172560158891,-458.5069022514758,16847.821510370664,1689.3308069114332,1320.9213475826077,338.0306218202875,2013.1637147459278,-383.58055613934687,17098.78321011443,1678.2607246801592,1316.079977733049,330.05338805217235,2076.63672295097,-468.96847227261037,16872.688794980477,1714.2465941834544,1312.552490237934,317.8513633443392
1928.0,-420.0,16908.0,1742.0,1363.0,278.0,1823.1112816216066,-382.73475082354,16774.74098219614,1751.4036042327305,1355.0901040427707,269.5722928871001,2089.5799836916945,-307.077931581607,16934.37327538352,1735.0301918898224,1376.5396870632933,292.8131629113219,1963.0043173857684,-376.5822937428727,16953.29644720795,1724.2285759352985,1369.3414706334845,281.1472967678448,2162.5065693101974,-359.68324922555684,16971.412901566673,1744.2061764980936,1369.993038006517,287.88417876362905,1995.8795604936263,-408.5864593874348,17099.92143829963,1753.6929063900754,1366.6141639199102,286.24838138382484,2073.5210195037525,-341.80292422312027,16886.815887797282,1761.4486012671557,1352.8834296037412,262.9607127878388,1814.333737534182,-459.00189973821716,16753.36839198154,1738.6180981009684,1363.1269473675472,284.757560883428,1839.4582093736199,-339.270808640022,16892.914136470372,1724.0064385200224,1364.5902278162262,282.99120465341383,1991.3135437290623,-516.3593808358122,16919.711634090363,1744.505162872639,1347.503967321329,262.0173431557715,2118.909022392141,-452.2256458685774,17032.335071871392,1742.0157731409956,1369.114134202173,290.8252436962389,1889.3925059376922,-327.349415367968,16875.399390673403,1753.0163578747383,1365.1492091920077,278.2477334082428
1996.0,-336.0,16812.0,1729.0,1376.0,322.0,2065.246591915528,-405.0564830762759,16640.94200148445,1731.0029537337325,1390.0369505338413,316.994123238579,1945.7961903209302,-236.03937092792017,16883.589296384365,1727.9679521877902,1378.7800859996655,311.21387826110276,1932.169636417317,-129.32973677094208,16679.531913691513,1723.8489915305493,1361.5342386255672,313.4942413720032,1992.7975516467645,-321.6987001356989,16907.79343365724,1725.4879856521125,1387.1175012640517,302.10760548694606,2023.391019554869,-343.39310894722377,16856.133450643327,1751.5970994661823,1373.5660122180643,326.7600732483531,1843.1724725567688,-369.8828155479338,16891.526073111236,1727.5658988066969,1372.4998731426485,313.3753387304992,2215.267047118348,-442.8970003383087,16632.23627265296,1750.4937676209015,1384.515482574248,328.00547674779483,2183.0161465409233,-371.66817101865126,16922.759114039018,1729.0967203128753,1379.1892847717515,325.95614711659357,2157.478432733561,-558.3103610837218,16565.67110875682,1713.3703470233154,1377.2462792252911,312.5988433371446,2067.15946512279,-309.28988611858085,16790.583617083605,1722.6403463785618,1380.5345389658278,327.46753745550296,1930.6817506337113,-467.581334608634,16855.16206367598,1743.3018452504723,1378.014547007728,299.7061961986367
2004.0,-436.0,16848.0,1721.0,1347.0,306.0,1992.356824426548,-391.43369477962045,16750.100460130776,1732.2874666298112,1345.7496107004329,303.48318450200287,1971.3939270982241,-446.6008819291747,16777.298657275158,1720.9809189230164,1351.0838316615566,302.0899315059429,1990.2857193048205,-543.4792505723168,16959.291472487075,1727.6890679386336,1336.862799666656,306.91939376897056,1947.3726683669518,-508.6114441398715,16896.44928499209,1738.489938417329,1345.054807003614,291.91903742811934,1950.9593333678347,-524.8968760050662,16824.680075120083,1718.8804293965313,1348.6012090539543,317.9508940519864,1999.4900604390878,-554.7444210150875,16986.22805502272,1732.2456512194583,1336.2339546886574,319.48999165250405,2026.669516568707,-547.2206632666082,16789.778810028027,1711.6871985903672,1338.7505372513817,310.17853562712526,2142.644554086332,-422.93388910623355,16842.71253048923,1724.7290364586083,1357.2264219674132,308.734355214983,1928.0452720728338,-564.7120442061577,16851.306111929116,1731.2202710110762,1340.6441955352109,301.72938039119424,2094.077113691593,-543.6942937001305,16913.20194795985,1712.9254005978248,1331.3626804030168,323.66231546704296,1919.0341485448712,-261.6922456592175,16753.20342629852,1732.682978850605,1360.8310719937674,297.01661278447875
2000.0,-460.0,16796.0,1736.0,1357.0,298.0,1956.332597429245,-478.23141777006146,16892.28888796919,1744.2292309627755,1358.4077478115935,287.5449810142582,1847.9822475089122,-420.6490404842827,16775.518767321384,1743.3124485543915,1377.947376903334,298.963919301469,2106.818172517868,-424.31818782479615,16851.187897611602,1718.30553137819,1369.624862105249,298.47096119584404,1950.700023379622,-468.77287404572047,16689.351293689528,1741.5553593725567,1364.3377202864226,293.674239766972,1914.413139462527,-580.2461643562388,16857.043165468825,1738.387318442268,1359.58120104513,305.90883337878984,1967.1863835897254,-301.66249500379405,16939.718843030565,1747.537529969941,1360.2978417474894,295.4578381496259,2039.1803658605456,-481.1828976984169,16943.092409865643,1737.4077895033786,1370.1340159103383,290.41454394761263,1954.5073900699786,-321.45966934992293,16892.61734286703,1736.985808620703,1360.8744469715216,317.60726249505484,2038.703524049303,-525.721881343456,16821.128341996475,1753.1871297378307,1376.187437029425,285.2560680315207,1793.9196384162167,-490.1232391605023,16640.850020006066,1727.5689598136373,1381.4307046721233,292.8091933882535,1881.4821349795807,-463.5527331259241,16823.05452081199,1729.6215130543508,1355.3996645794703,281.2085738835384
1996.0,-448.0,16828.0,1780.0,1366.0,316.0,2053.499834823042,-427.39298581652434,16789.618964930913,1783.6223379021926,1345.4900828388932,311.9512227977078,1931.040306798793,-302.96984207248653,16956.485409037992,1784.7391130952285,1361.3833627438269,302.72360917171625,1977.5712961744666,-328.3780544409603,16905.128439672986,1770.206998639167,1367.6331463622914,328.666625196175,2043.4473034926186,-600.0954546769806,16800.386436270754,1786.4273985839025,1367.1701784796612,332.2099330358061,1961.3858762626287,-420.02764010844135,16736.60256943592,1779.429300008058,1356.018623689075,316.10660548534486,2023.672017204028,-507.79092671789397,16999.74892200351,1772.9865811295358,1374.1884017922453,326.1682257320361,2024.2928784641767,-420.3604966968416,17004.16593310299,1777.3679332478619,1369.4702679822108,295.7544448576367,2127.5664444438235,-449.08210264473473,16864.8812237901,1792.0599821610574,1372.4505756664219,332.0026801145813,2110.6154126522392,-463.606255879068,16873.020295263195,1779.9920186995625,1383.8528463114303,328.47820278215266,2137.618302794918,-542.7825618000549,16928.207550429743,1776.0079626711831,1370.5371599670693,286.8521181942015,1809.4403696185648,-637.0403011789915,16962.174389297736,1773.0324344593753,1348.1941513030474,301.89317049953195
1992.0,-496.0,16788.0,1756.0,1353.0,300.0,1956.540917738559,-565.4696134631705,16813.101292173134,1751.8714867976048,1343.6000087037805,303.4326051586376,2073.2801381510785,-435.7802386691165,16784.62411567126,1757.0766898254262,1334.9919460228177,291.334445873867,1989.5697238258608,-646.7544876963605,16794.02448861872,1755.6021902897003,1360.4634872448164,310.6845944217787,1978.2978326370066,-373.35785890201146,16800.188843772754,1747.9226650613996,1344.1321633417813,290.49035833846625,2015.1615387183342,-394.5444150070964,16883.65079890825,1752.8170317587678,1342.1374826218391,303.42416272931666,2102.1700900407163,-670.339083048718,16823.742821574222,1755.1516945799622,1351.411902657642,291.18874327250614,2000.0278571282406,-631.3932744984174,16820.77185091632,1749.4194766831743,1353.2584532040376,280.1694426753143,2034.0487831636,-310.9932977027371,16847.61632034035,1764.7333295567544,1351.6712979229155,301.4263314236562,2123.23342656288,-438.444183334688,16896.201435636078,1755.249986310779,1332.6844941028044,300.5477183896575,1989.9638891476743,-502.8034996753182,16715.537656070705,1753.2870470468956,1347.7787580387576,299.36232882662847,1806.6503923820262,-533.1842659959486,16764.490786682356,1778.4143954370843,1355.6841202413198,305.55342662548213
1980.0,-484.0,16812.0,1735.0,1325.0,290.0,2107.7663774416114,-564.947386201593,16841.00969676871,1745.2052700776717,1314.0328672151988,288.0566614257381,1912.4897678459422,-353.1090727419305,16846.339383226914,1724.8330932539388,1334.9208113068414,301.50566214119345,2016.8255418444185,-515.8798539214798,16873.82358405962,1747.0316020984153,1332.3182223894732,301.950632983466,2041.4652902127852,-383.1445433475081,16726.54880960531,1744.758596815555,1314.0187857477558,274.4024871785166,1955.0408695734318,-438.87224097050705,16730.80017982789,1742.005345925671,1329.485350102035,301.7310077923236,2049.796717259507,-454.18895366199047,16807.167974880485,1737.2786670088585,1318.40129366505,290.778863356343,1935.096823613066,-561.9733569794839,16688.60798154824,1727.5852379417581,1334.449311531448,291.0238484407694,1901.727971430701,-416.2438359162347,16723.80999709652,1718.6895736135743,1321.7139834357017,299.1617048965745,1986.450021096652,-512.7295852554627,16748.343533107778,1740.095139081363,1327.3467621105283,275.06308352317444,1998.8745917270107,-393.56457407305004,16893.549887782065,1723.3055383980425,1324.995178309804,283.81369149719313,2006.9135433451809,-193.05535347476967,16880.10275064495,1738.4405574998968,1334.5494233854706,290.74946582058396
2012.0,-492.0,16808.0,1715.0,1340.0,302.0,1847.8976793989511,-475.79559289789125,16893.091525970685,1710.4138249425994,1335.8112104025972,305.6283581080128,1875.0278347962983,-682.3245846068666,16711.863345429247,1719.947061156927,1338.989929222995,321.24167962290386,2037.554674057687,-483.15759577595765,16805.799877358128,1699.5148656455128,1334.0840426485563,305.7984692146343,2133.766927842307,-307.2012683737418,16660.28310582758,1709.219892493801,1331.6386139144006,298.08938955288966,2148.1896665982263,-597.6518941574726,16734.67664526496,1711.63516219142,1343.2269868689505,304.41761071776426,2012.2105399032957,-473.2664594771522,16820.08052529649,1719.9739587610438,1347.3801129713531,304.49912087052894,1829.6557922300165,-612.9842883743185,16885.136443531203,1713.7948078699792,1340.4146642623195,291.6508945502147,1869.9894327388656,-534.867581223881,16746.328385078792,1724.4256830227669,1333.6292478742675,288.48813457758126,1949.0698104806602,-449.86616623352165,16835.99457369363,1707.663715837609,1345.8199735859296,299.6213602104389,1956.391197969556,-472.67703362170295,16854.111955552577,1711.367781045163,1350.5501699967576,305.3469892980221,1789.871883761605,-474.4477564655872,16535.765191654893,1729.1079347797672,1352.9143138989261,300.4490635454031
2016.0,-532.0,16780.0,1723.0,1344.0,316.0,2223.71207928727,-599.89341105871,16856.822027977494,1707.9170567151489,1358.7476473124618,319.9489259800496,1922.323241510498,-493.734115693808,16798.204454192724,1718.9177180092008,1334.0345147595995,306.75820785450026,2014.1218933175267,-708.5579887939634,16776.453734258404,1729.4464636223045,1341.9437559419025,314.6996963932925,1873.571733684166,-486.94704529231194,16693.18513448472,1721.0525527465336,1337.9962827940171,324.0650314504534,1986.7704288222578,-481.66815054824855,16844.935357998944,1723.4522923004063,1343.2180550166481,322.6580952337128,2064.4038896946286,-495.1613780925501,16811.194013753928,1729.0088270589158,1339.2566151193298,317.7649176086955,2014.1553976742098,-706.3588946449623,16873.725265159814,1719.2557676606352,1334.3666720979404,311.3926105985687,1938.5770395215627,-460.13202238975504,16643.577505843674,1719.216307900851,1350.0244153724013,300.869573050741,2048.3438975651598,-627.1968297326731,16829.776180177872,1734.8254459666643,1338.0717855938492,318.49742591482465,2077.6509693527587,-574.554400444191,16916.031571990126,1710.2907963577936,1354.3002102748844,300.6895588132547,2187.734526944602,-481.2795976247435,16921.84912190843,1731.1163404396018,1346.712926071132,326.912578472014
1916.0,-496.0,16804.0,1737.0,1374.0,313.0,1893.6158446024313,-430.30040153023657,16790.01847481634,1715.7909677710986,1370.225936507012,308.044838195202,1928.680009930279,-443.0872577411544,16866.1959043297,1736.1219233136962,1375.0143257723869,297.8179339540077,1998.3684488234271,-506.0085681327356,16805.484931560288,1740.644432397949,1356.646426810229,309.0837409140458,1895.833692423974,-572.0734029003936,16983.492194410763,1737.3547632525776,1360.9994269778545,331.3460137293825,2067.8380428783144,-552.9552206294983,16692.58356891241,1756.0401896140365,1370.344273987436,318.4252386530545,1929.431940635858,-574.5737488486681,16891.19742410677,1730.835757064474,1377.678911914852,307.14081303693484,2069.557705666149,-495.9120867325854,16547.332228205913,1741.738279640683,1389.3258840485998,326.4141298705238,1924.0271602045027,-477.9154957297225,16945.70168034148,1733.288166379421,1378.9989060544092,317.92800779264786,1995.166598019932,-550.4575834512748,16744.078260751274,1735.0499131610923,1397.9468207479958,315.9118841964454,1983.4745491249944,-606.183369631673,16905.640557354913,1724.825522960318,1372.8927730369103,308.23949860876223,1976.059918982882,-634.2412588528495,16802.588919076825,1724.782825648824,1355.2583641664708,310.4514094006936
1964.0,-412.0,16800.0,1709.0,1352.0,332.0,2196.9240857609457,-371.9550609100005,16685.16913975082,1709.2225392455255,1348.0014936119928,329.12675068756346,2050.2617367110333,-498.6171065255314,16871.902618548207,1718.1919792658507,1352.9354610708635,312.2269357831318,1858.970093163417,-537.1730309481447,16787.6565755491,1715.5102526340615,1358.4411690437532,346.5099427010351,2070.637840147198,-365.6828211420872,16689.108116846062,1697.9472515369773,1356.689950482713,320.7768773594335,2130.581418897135,-441.25212096810105,16948.53610657765,1718.0150296880956,1365.7706626633453,315.77842809238075,2062.7077469768915,-512.4023018058008,16853.79151169381,1695.159162422276,1352.3062778125739,340.5430663897088,1863.7938932254801,-403.4566923455198,16773.004927004462,1695.8858134289908,1350.7997453985015,329.3414637330074,1884.1818236124473,-282.28827558614273,16906.614810664472,1709.68032415994,1356.6159965897677,338.8439825184516,2186.5770824750207,-146.57930812970147,16695.680014720132,1714.5068342528969,1344.94608165074,332.92101898947925,2026.3581071474957,-347.36259964797745,16904.196667763445,1718.2321979278108,1340.8423436483135,324.7898060784841,1795.4948348105365,-225.8460792507046,16793.789743362315,1704.551402250601,1357.1937586287322,332.3712328255512
1976.0,-448.0,16812.0,1747.0,1319.0,325.0,1962.8876339106005,-356.3671945104401,16721.22594566488,1737.8363830241622,1320.7359652640607,329.3619053303701,2191.7516662049597,-382.4017986977898,16711.126298249394,1739.8050217612142,1326.3517443446917,334.4577254628891,1972.4287516250554,-438.70952798062814,16867.306758680097,1746.0690991407935,1331.504840316724,325.2748491416832,2164.420431734132,-394.9424819780127,16676.53803567368,1739.2952108169345,1333.6857374822246,322.9905385361193,2050.3783498481566,-419.1916361010198,16744.349178814686,1730.6276650101418,1337.0482824472501,312.5380126441908,1906.7199374966833,-413.1679592645353,16796.218694369214,1741.924448915975,1318.5796161422616,332.4488817715493,1973.56392142509,-454.2873693296355,16761.02506125782,1731.3450374673007,1334.6927154456134,326.92022312583913,1793.1333155103018,-508.51519175028983,16837.31976604239,1761.898828406916,1319.3680168812516,336.45022767636226,2004.9943140645883,-432.04856970025764,16661.73935954574,1750.7993672880307,1336.089094915795,313.966048570649,1921.1909751848839,-498.2179616892464,16827.86570070955,1738.6890840276947,1328.5645009461687,314.2375650966375,1908.069742099706,-478.6725572575624,16869.7944071798,1745.2613738575315,1328.6905327033458,340.91448435094964
2020.0,-408.0,16840.0,1723.0,1337.0,320.0,2090.544455433122,-450.88780963897045,16834.153944015343,1725.596716301515,1315.3251621745374,320.86402667573975,2125.7820688941742,-557.4864414467731,16818.244367732983,1716.2297391905736,1344.9539690035126,329.8830240373813,2178.68478005627,-430.13685270845684,16688.01720384462,1739.4678211411929,1329.470724177895,320.95462729448207,2000.9795686061843,-502.11163208800986,16919.822933563628,1707.8159305647139,1338.0356179000148,326.99528601251365,2109.6543580882817,-467.4473174927217,16621.093597979558,1726.3177152886933,1330.340358179744,309.3112704001099,1977.1639146423422,-511.8037848880427,16686.07406714969,1709.8239426895311,1336.1818971686364,318.0114044952818,2115.4376607453896,-352.2395220218564,16801.374954257226,1716.1670987733269,1341.2511255002614,312.2531924262328,2037.29018340704,-435.8889681017705,16777.95567609374,1731.4836568638918,1329.4062257937355,344.32254048207545,1856.4581037164044,-336.62839777792817,16908.45442794099,1728.435494822228,1334.9641011801832,335.5323976313821,2084.8307366943973,-287.6233000774355,16720.565417012,1730.5734212174264,1341.2629403628523,314.4729745338734,2081.5463234029567,-309.06851053793025,16817.723700684346,1721.5578619829844,1340.3671488904147,313.82680835747425
1932.0,-504.0,16876.0,1760.0,1357.0,280.0,2000.7750752803747,-362.93803591645394,16722.26273481847,1764.5491260721103,1367.9290772620611,259.44387756470866,1932.55134697168,-619.7104802436039,16784.46999042349,1748.909294699607,1352.3938820667304,295.926718940179,1912.1158522808482,-339.35757474736727,16885.73839571501,1757.4194153465355,1351.4951460784707,303.8302233925614,1932.9332340543433,-502.0128113248249,16920.867097000846,1785.5690529143458,1361.4016172192623,293.55842363687674,1935.1508897492504,-347.8353917198988,16863.123381646186,1763.6015104256426,1355.85747766728,273.2036499511204,1944.473765017696,-458.6430576521649,16919.455895936684,1773.65974413146,1356.4050515768786,264.73597558795,1863.836348683201,-396.6847609369811,16756.395016704762,1774.8195290975575,1350.869088191353,275.7510765512584,1796.7750752317606,-411.1482026368857,17029.638644611554,1763.4586492237981,1366.4636818748545,289.7264252516882,1899.582482684043,-544.6955754620132,16807.58868512265,1761.673865343926,1357.35545771153,278.1060253419029,1791.241772541181,-417.3395875598243,16849.204895343635,1744.3009756440927,1363.3277594830745,278.4252144950967,1791.577516009948,-432.1520911359222,16918.505029686356,1757.1109126840508,1362.9878492700914,269.54426047755976
1992.0,-372.0,16816.0,1745.0,1345.0,324.0,1910.2539030566354,-284.9361505307311,16826.669283031497,1746.0336571611829,1345.883598631475,328.11213606922604,2045.7105345137347,-282.79024720890914,16762.289273257495,1744.1313788656535,1355.54306182365,313.9253986197719,1973.450482826365,-231.00167673370643,16708.233514504755,1729.053052643259,1339.3979830994747,319.2382545499552,2189.9809636707323,-561.7807203901709,16655.360931122974,1745.3024626249673,1342.0514732815393,314.5405889456749,1922.378351569042,-261.40270499799226,16743.218600760076,1739.4367750963177,1352.9239046808527,325.6096711564303,2034.7965850954683,-447.07702146513276,16773.339074517004,1748.4610412608952,1360.332743884174,343.08744094577344,2126.876691239331,-397.8828190494633,16784.240072089135,1749.7166314179801,1331.3724551889545,331.95199938709226,1682.7959519508813,-199.55758545351816,16863.664991401183,1749.3708323758858,1335.6347082746925,323.71058451614647,2089.0517312202755,-505.41893707381917,16812.977694681453,1746.7782617691448,1350.4235818565376,328.4272912793906,2121.3895322340204,-293.8201609057271,16852.437979528953,1747.7915165700551,1332.8642246139743,321.67258501415984,1812.9340358764234,-364.6371218210157,16779.058694406103,1738.9829075422444,1349.3851900242742,324.5236104596524
1976.0,-476.0,16924.0,1758.0,1349.0,293.0,2121.784030253387,-669.6243288594695,17072.04622312188,1755.5812065926564,1336.9339094446675,298.0516556270863,2065.907937800562,-438.49287904036396,16898.39521134441,1749.722989539789,1357.5163746693622,300.68773989947897,1953.8352228076274,-383.1116651535234,17001.109195766916,1741.7993448995605,1344.5321633983538,297.0439356106826,1955.4581760983217,-272.4576441054845,16820.300616365468,1746.7439082494577,1321.7028944149845,292.55053173684104,1982.6865154808243,-481.8035248009621,17057.514291348063,1761.6223302601945,1357.7049175800626,295.3533599150322,1949.75450024188,-372.6233578526161,16902.604463094583,1740.9019097647915,1352.994475699388,281.6008483885439,2063.3373190332923,-383.56451061731104,16883.39524692248,1756.824636602726,1346.2963373402688,295.99328772216194,1895.4581682536914,-343.7211987189859,16767.344129332345,1765.6963186380858,1332.1112033773115,305.9032086837664,2051.1008560054734,-375.8257127571711,16804.497495260905,1757.3401550457381,1363.9481454984866,315.1599779686452,1956.0529259461898,-625.6883423051386,16773.357815812746,1755.4352539233407,1344.5928937873975,292.73594079568835,1974.305346582428,-360.836201861937,16906.001956237425,1756.5795328273775,1358.008234086385,293.42155015901534
1932.0,-484.0,16936.0,1693.0,1339.0,308.0,1942.0118494571018,-548.6946716287326,16994.278214068945,1704.482407346395,1347.5795076548652,306.8346555397075,1976.8641893001745,-626.9285894331116,16979.040017899126,1685.7459796564115,1348.0648898598645,299.35965215410783,1823.389364159604,-418.34901853617635,16863.465440174703,1699.8337187457523,1341.6621143481173,299.58041513494095,1785.184898568875,-394.58093499685015,16959.88357024537,1683.993275041793,1349.8704836513743,306.363537635201,2029.8341511970962,-457.16694912219117,16994.24339790162,1712.9781748676169,1319.896422633683,293.23317338002806,1987.2057681124325,-434.27011678161705,17061.387067698186,1693.409490649381,1333.6025134250885,312.5079050106786,1867.6819813633965,-425.42520109364574,16957.717304932852,1673.8137044665098,1334.8629124979298,294.3797689286235,1857.6277745706518,-423.71822851595505,16786.40482907612,1682.7419454465146,1363.6992152327596,312.5066304364467,1947.8225841223796,-418.34805169538487,17071.96361925538,1693.2006369990788,1333.7272061737094,310.17440837500743,1944.3842228147798,-204.5490891228975,17030.12138918255,1696.6740046578,1338.700968456387,300.4253572782101,1864.703080060013,-659.3653233682822,16950.307486674006,1702.0539333202787,1335.6261252479082,324.3434762590483
2000.0,-476.0,16872.0,1766.0,1349.0,291.0,2049.135771913976,-439.6093394407496,17003.66454168161,1755.8936855924733,1340.0839436232543,282.7230130378862,2010.210325214742,-627.6601685200146,16835.234514470943,1768.511755897844,1346.4179304362003,285.4908827378744,1966.265517192798,-414.29431160541156,16959.01936485849,1738.8719844916359,1354.7423754519693,291.8291411497763,2040.7465158483012,-346.17929363167684,16903.924821267636,1761.885228857413,1354.0761410796877,291.98371949497476,2106.0971373091566,-510.2942285950702,16731.668355147423,1755.2366268389464,1347.555409857376,276.5457707404955,2213.94471519235,-492.9038892238931,16994.62068573303,1768.5612954508715,1344.5714272938994,276.48796223980173,2171.6683972970864,-609.6768786486167,16892.315652480374,1781.2709996007768,1341.7095463099774,281.2533928960701,2107.624406172601,-449.2739559610367,16857.073371887793,1771.5758874527726,1355.7488347968124,295.6455522085888,1920.9457501962095,-325.19489467085873,16850.67569572412,1769.6295940226605,1346.6069103367693,306.1475695733557,1978.8458999840975,-534.1488292093999,16865.76631134319,1755.645067869657,1359.552581095602,295.93368662093945,2165.633650868515,-424.09054437209807,16807.95897376328,1771.5987247227233,1347.494982587938,276.89343510649974
2008.0,-448.0,16852.0,1735.0,1340.0,321.0,2011.6278121118457,-535.4067541258164,16924.509333236212,1742.521177697923,1338.7492462782852,329.4336291905157,1946.4813529275566,-399.37581685464556,16860.99370182103,1747.953631072238,1322.70031353056,320.0187377447203,1820.9413472611018,-499.88548965179467,16595.755244496297,1738.860529807781,1357.739395255133,316.8900278138596,1992.1281968755493,-548.3791398202902,16958.908820553264,1748.5466154642797,1349.809380041704,302.5843141684785,2058.7563627787576,-412.71134000182906,16826.651221615415,1756.539475129907,1354.9134001053176,312.909000565636,1997.9609576410746,-657.4961564415985,16695.441422272088,1726.3239249929202,1317.5550841508766,329.07236307536004,2052.5031180608153,-521.9479204997514,16769.218110521695,1741.954460685335,1352.843425679511,331.74712062294344,2023.6097914727027,-385.14917069647703,16856.538102377668,1736.1588274350988,1344.832209596113,303.65220059442606,1855.8803343033044,-552.4741007073836,16866.960341668186,1732.8082138889588,1334.084471944054,324.4920700967907,2065.6414459120456,-512.354701812508,16823.49021080182,1746.1478156525548,1337.896020608506,315.72649644639785,2029.9350211538913,-398.1255887438672,16716.373500187638,1752.059019103305,1324.383001020257,307.04501515309084
2008.0,-444.0,16848.0,1733.0,1335.0,282.0,2001.8041110808003,-441.4965845637869,16847.11035000626,1737.6965846709472,1334.0048381489444,288.03887840272614,2107.027732458958,-561.9849992018054,16911.830331400204,1734.310351661632,1324.6746207908106,284.34902353115376,2062.2448183161778,-357.85513221979517,16886.108965676478,1729.121653959811,1346.0230152314743,279.08153439977747,1902.6595479258258,-529.2805988437669,16709.166654447028,1720.1302164287172,1330.435461400873,266.5190217818307,2116.257870090459,-364.0043494365462,16891.61671820575,1746.225435034951,1339.1284154635878,279.6889994812386,2031.866991715348,-437.67893040270377,16913.104578246424,1741.1365875906372,1333.2008153548463,291.76621360889294,2246.854857425344,-412.24975889312833,16835.078541114402,1726.6237288510395,1319.0509577799842,269.18714728939904,1972.3956965468763,-520.0161197932525,16860.334793932572,1752.7613292041856,1333.3306910886524,271.50633997343766,2187.5954869065718,-267.8243109475195,16880.24629396867,1745.6132116405063,1336.168359883668,283.4760201173643,1986.4534802576704,-453.3728755664589,16783.199650476672,1729.1024181451082,1340.646253317212,282.40960695219604,1891.7437505727482,-575.435143600263,16844.22691402183,1725.8722581209333,1342.1055157544183,287.98290331755226
