IMU1_AccX,IMU1_AccY,IMU1_AccZ,IMU1_GyroX,IMU1_GyroY,IMU1_GyroZ,IMU2_AccX,IMU2_AccY,IMU2_AccZ,IMU2_GyroX,IMU2_GyroY,IMU2_GyroZ,IMU3_AccX,IMU3_AccY,IMU3_AccZ,IMU3_GyroX,IMU3_GyroY,IMU3_GyroZ,IMU4_AccX,IMU4_AccY,IMU4_AccZ,IMU4_GyroX,IMU4_GyroY,IMU4_GyroZ,IMU5_AccX,IMU5_AccY,IMU5_AccZ,IMU5_GyroX,IMU5_GyroY,IMU5_GyroZ,IMU6_AccX,IMU6_AccY,IMU6_AccZ,IMU6_GyroX,IMU6_GyroY,IMU6_GyroZ,IMU7_AccX,IMU7_AccY,IMU7_AccZ,IMU7_GyroX,IMU7_GyroY,IMU7_GyroZ,IMU8_AccX,IMU8_AccY,IMU8_AccZ,IMU8_GyroX,IMU8_GyroY,IMU8_GyroZ,IMU9_AccX,IMU9_AccY,IMU9_AccZ,IMU9_GyroX,IMU9_GyroY,IMU9_GyroZ,IMU10_AccX,IMU10_AccY,IMU10_AccZ,IMU10_GyroX,IMU10_GyroY,IMU10_GyroZ,IMU11_AccX,IMU11_AccY,IMU11_AccZ,IMU11_GyroX,IMU11_GyroY,IMU11_GyroZ,IMU12_AccX,IMU12_AccY,IMU12_AccZ,IMU12_GyroX,IMU12_GyroY,IMU12_GyroZ
-1584.0,-5012.0,16224.0,1809.0,1362.0,295.0,-1667.681765902586,-5035.858908965413,16363.383793316356,1804.9633754108604,1375.125675776639,297.23606015130935,-1593.3385037294224,-4950.871154577655,16095.151012835115,1820.3700288480127,1364.3010399141701,300.1097888287076,-1602.5819235295005,-4950.726584669438,16160.818299239561,1806.0025714191033,1361.052719307286,294.21567288984926,-1555.4214798784838,-5142.67529919404,16231.4996078882,1830.5753134505792,1380.2128493275454,294.09418802061157,-1483.2544461224093,-4883.552730138805,16166.958237952209,1814.7424986125338,1357.678641932005,306.5647077042783,-1591.8317887297594,-4961.418921274333,16135.571084940584,1803.4485650815657,1361.989911051527,304.9884647806011,-1641.1718552409886,-4967.368249979906,16252.655846763028,1798.47941850217,1367.7253326960092,291.13176020860396,-1744.1327556271235,-4899.49999818112,16258.658006594897,1792.9298930399486,1385.048154973253,312.92365757977177,-1495.5077894270466,-5087.475608559598,16404.017612546795,1803.2297063297717,1357.9322792230266,286.01268823617164,-1567.565981993092,-4893.760551369363,16211.387606748844,1817.5415523699653,1373.9594227047778,304.2831233945256,-1605.084843703905,-5026.3976084913875,16223.381543045696,1802.0873250459504,1359.2550562836122,299.07681761246783
-1600.0,-4972.0,16408.0,1627.0,1328.0,288.0,-1634.9412496894013,-5052.333080138972,16314.184033658219,1616.8512403661994,1323.9150887461317,266.5618651759828,-1399.763424092783,-4909.974655311018,16358.692425265734,1626.0504031089697,1341.019672782172,286.64820313788164,-1507.091592099005,-4850.964039729558,16533.013656997096,1620.2219120568934,1322.3151972723326,290.1771132623427,-1614.644371298242,-4941.262180756963,16482.57380318608,1645.9455244507071,1320.3948736048342,286.62373761236745,-1686.7201241763516,-4899.828737155535,16504.198480287327,1621.579654257268,1330.9171925393512,283.52201757170485,-1632.7092455662473,-5009.8880815261955,16327.201685422187,1620.95136414675,1326.016457578951,295.5017409412921,-1359.3912101071444,-4826.173736241559,16464.21307843971,1620.5256793549715,1331.1872355426608,295.28012986831783,-1634.7643838120623,-5060.009068869344,16368.884060288898,1625.935287628056,1342.8313391392176,280.88677111527943,-1565.7480129906642,-4877.387942162286,16408.453128941248,1633.776376124025,1334.4029671671253,298.4505415804427,-1580.8709296073182,-5002.94134983372,16355.54799710995,1618.276932367059,1321.7025988637977,290.0250556826381,-1630.513529278972,-5037.157112268679,16371.361162159541,1621.7929937088668,1332.4438101790731,291.10872522142216
-1520.0,-5092.0,16196.0,1620.0,1389.0,310.0,-1630.4439850377564,-4986.224967730526,16291.417793304881,1616.0129320843366,1396.607009405184,307.529866113741,-1490.7978045237576,-4984.474840369814,16262.919881843742,1608.6788487172437,1399.7693356775892,299.93551771456004,-1283.7219015371793,-5130.393345577799,16113.000566776573,1624.5871978356458,1385.6230258988896,306.5561194909989,-1466.5353451401072,-5248.847588385751,16186.18056721229,1599.6787126514969,1377.545593073433,296.91953013986426,-1301.9164488224385,-5197.147165572782,16118.744105308548,1627.2568415189796,1390.9655861901015,318.4395708714929,-1516.4976926898287,-5076.428146310751,16071.211460339247,1627.6327070514935,1414.273774266503,308.03809823445454,-1452.5832174036937,-5051.4953888450955,16126.059767515426,1622.8657482354379,1396.4898542603419,325.55468051864256,-1537.4791137947088,-5237.391109367311,16083.97100435336,1627.033941016041,1399.204801039749,326.88946057550703,-1484.7853280935963,-5082.326832263448,16172.628528943209,1620.3817105844591,1388.5800785858094,308.3943041656288,-1547.297981813502,-5309.24475992017,16196.140075366116,1629.536115324712,1383.6718488438903,299.43568531277583,-1650.890715999114,-5281.502196973278,16163.195046726074,1627.962728166358,1377.6267423868655,321.05343927135954
-1492.0,-5120.0,16244.0,1804.0,1381.0,290.0,-1493.1925770677065,-5112.006744175659,16223.363428722112,1797.0204014283884,1372.9505892418335,307.1084406844117,-1490.6197339767155,-5088.619891299234,16193.908401221579,1794.7637198214522,1381.7019154882814,286.6096023077273,-1542.4449460623573,-5241.400137147161,16147.690643155682,1788.2039785265897,1373.102384970104,303.67511411001624,-1556.9581804927682,-5122.260068877465,16266.750626646142,1813.2643750262064,1384.712774993628,303.35554864047964,-1315.4051524504712,-5186.475529466452,16263.305410906965,1810.2793359555856,1355.8250940765788,294.0121616584307,-1525.876541515868,-5034.26085595065,16302.427572620873,1832.0344392381994,1380.8194410790813,296.03379954535114,-1485.3296681906904,-5119.783963868208,16167.257463587472,1813.7549744689638,1396.9750047924026,290.1552393690114,-1744.2769561137359,-5133.917780668061,16278.87019004329,1811.0617557528785,1387.5598892174528,286.7826511930696,-1437.3804699584225,-5189.171446264918,16329.912132188732,1795.8711297030675,1375.6278674724435,296.5036713229863,-1367.850307819914,-5127.167145365806,16190.312156927685,1799.5828213759962,1390.828186663252,289.3078694100558,-1598.2244691797862,-5095.50758537742,16170.325147710837,1802.283007935611,1379.8261198943153,288.854947351994
-1592.0,-4972.0,16232.0,1685.0,1378.0,260.0,-1611.1919233444762,-4874.4334908378205,16002.958672244093,1712.0286584718453,1370.77928201076,267.8144902578538,-1724.6950313861648,-4958.372522441596,16293.74748329927,1687.2334014630958,1368.4074968814411,277.40813438640345,-1620.3869317316194,-5003.919601288175,16449.761086910614,1687.5236217543536,1390.281381582715,278.25226309877274,-1740.746687395897,-5011.93959880618,16117.579850477414,1691.8933087391656,1389.2250259719146,243.47222062008393,-1674.7008628253232,-4991.517102984945,16351.630955463159,1693.4161809415498,1370.7483975780272,262.5460830716433,-1573.5449739703254,-5092.890558138784,16222.808314116348,1674.500418711331,1395.2196105969083,261.82865127071454,-1618.911257047985,-4989.263208124595,16154.44434089911,1685.478160719702,1385.8388591390042,256.80808016741025,-1442.8579823360815,-4971.683290598352,16333.946615091681,1684.11803715617,1379.279185082824,264.858055763551,-1507.1332310465286,-4927.379448399314,16141.380592553289,1688.793157004716,1372.2615728776157,264.71613211253816,-1487.5057108476178,-5029.268546267215,16249.445401049144,1672.9601675471283,1381.9946878319713,245.18476739883846,-1619.0015945806963,-5091.223447605536,16116.659941488264,1697.3368597503156,1382.4723033888433,252.25770427058404
-1596.0,-5084.0,16260.0,1648.0,1359.0,307.0,-1671.8693343021412,-5142.751139763962,16154.911750503617,1657.3748684299485,1380.3016855026697,308.9770482396479,-1649.8569308834387,-5209.2817542639605,16300.531598526059,1641.366437322629,1347.1300553332696,309.27033772386784,-1683.6321283323657,-5230.769808707794,16202.969590394243,1646.8504469896768,1352.1682120214368,323.9796196525082,-1576.6773059160412,-5166.687151325536,16328.196571737522,1647.815849111302,1351.550252727919,302.7227269415527,-1528.664215638643,-4926.119261029297,16152.374868833333,1635.9448281095229,1366.563196764328,315.7843879981723,-1653.8692897342846,-5107.596908121486,16266.906875415205,1663.0852531627052,1361.9088104077746,309.93564379748227,-1618.1868845924562,-5201.138934095803,16066.108643261576,1646.1627337611997,1351.1423242829314,308.3771182048349,-1447.5535276145727,-5102.137671852339,16309.111167573388,1644.3715721025658,1343.4757369735048,317.2733858279485,-1808.8951293468992,-5128.228274193764,16147.108591351835,1654.3857160992425,1371.6260576196175,314.85156541550015,-1589.9385689225367,-5114.719363706706,16305.148693724215,1654.7815222611478,1367.7231129739846,291.66129023852426,-1524.9915794487124,-5173.519051149044,16185.103719299024,1645.4615970224313,1354.3591557981335,291.7441561498864
-1624.0,-5124.0,16344.0,1781.0,1324.0,283.0,-1618.100909610038,-5140.214630250494,16320.386285379785,1786.441230992241,1323.007307965794,289.02072585451793,-1482.0995412747573,-4968.767579864425,16287.483499335543,1787.009483846816,1319.0969194796173,276.4779106697301,-1516.0903525980234,-4855.186281818073,16294.48080426494,1779.4714652847347,1313.5330774658948,269.82007600051855,-1592.4044829506497,-5193.656881096116,16319.133752180753,1767.46063487648,1328.1099591430334,303.28650303873735,-1705.3739779526882,-4995.45710783149,16354.371530304088,1785.1775901982303,1332.9482299022802,286.65347821017144,-1603.3641755726392,-5040.239487125664,16338.08486921851,1776.9373795019344,1337.9349595217172,293.20780059199393,-1421.6165490877042,-5137.008950544395,16450.3529576495,1778.6492609097502,1337.9845886895353,278.1309049723364,-1653.9251953826529,-5140.697361809227,16270.83749486621,1785.7209376850794,1308.866069657663,270.08754189239767,-1752.1160168423287,-5158.912539801052,16133.303556673938,1788.8799450531885,1337.9354163279506,286.63567348387363,-1806.1295889335843,-5037.422020279543,16186.668112075296,1766.7287625382178,1332.2674625973682,284.30779555679356,-1647.0015179722213,-4962.404107350251,16387.824696991916,1799.396147567438,1334.4627104461322,292.57006577970867
-1588.0,-5044.0,16188.0,1780.0,1347.0,294.0,-1370.669192879617,-4885.364440628146,16222.667129407086,1767.666527147104,1353.8576631175538,290.36742727723714,-1587.2010081301921,-5076.31296424115,16236.440758737435,1774.219580062969,1325.5765997637036,283.3797282501938,-1509.2698068641057,-4916.590944768798,16098.031253486279,1787.4789092984831,1330.2338877974848,283.2837655486723,-1581.43643582997,-4968.837679411753,16261.324469613848,1786.0589461801771,1349.552749590673,290.6288501312471,-1553.9577077373287,-5113.136353307182,16263.251332223908,1772.6173101281793,1342.8818525188317,295.7774222391281,-1489.232876806037,-5149.236856292782,16213.78644348492,1777.9749614447524,1351.5289380368156,291.41311709195804,-1527.0578669343915,-4995.611498749473,16081.799531421068,1779.83703984965,1343.0703305380289,292.2319831756521,-1525.9853286299208,-5127.711357192464,16247.490068765177,1776.9344974417704,1337.2884873191465,298.11191263792057,-1653.735725615346,-5172.211662354521,16223.75468726189,1778.7753693344966,1345.3227700856473,294.1601031150457,-1606.4379533330891,-5121.443275692521,16196.048726438696,1762.308028250056,1339.9157354727768,293.21246995708447,-1608.3964052250783,-5146.101556604807,16060.608003733874,1771.7414807176622,1334.4800828544703,277.5478137079404
-1628.0,-5104.0,16240.0,1702.0,1327.0,226.0,-1448.1961030776379,-4998.542415595118,16100.594052628652,1699.5784213943505,1321.1979830041807,223.98599512103738,-1495.9237107842118,-4970.65250525549,16462.587112907815,1707.9875947718688,1325.4583166172224,213.89730129844963,-1685.3264457464602,-5039.579030862556,16177.587881281463,1713.1021591616086,1322.2126507779676,222.12745721075166,-1432.9745130953079,-5138.457792323438,16304.780983927503,1696.729128952744,1308.4305142784892,214.39828247785468,-1549.756404477398,-5068.313005516526,16468.357964721807,1685.2290326741604,1328.6120801145923,202.62994145450153,-1665.164747071927,-5161.60375216895,16196.071795803877,1699.9277304163852,1327.8650243425275,223.17371293891281,-1614.0058161043555,-5198.959140121206,16445.20192086218,1711.2841114209173,1325.0508719039087,228.47913335119046,-1390.5611724014339,-5000.1565260760535,16225.023164266015,1708.9148650910256,1333.073191187851,225.38382955789731,-1785.4765967618355,-5308.08409345544,16223.744923462731,1709.3165298333001,1327.1293926387234,225.96502788683617,-1642.1155087393172,-5301.925207967272,16128.243088387535,1705.5247770995577,1309.333628313228,246.29637122535064,-1809.385896796758,-5353.653888716066,16178.243254407984,1713.2882559893542,1341.7767933913328,215.31559191883338
-1544.0,-5036.0,16308.0,1842.0,1369.0,271.0,-1385.2638198606733,-5133.173269965406,16322.164246965114,1847.702821930103,1382.6418068580142,275.8996609845908,-1622.1752873948608,-4928.683384408898,16280.402979431634,1835.6063061863558,1388.3661223903448,283.5831408782218,-1502.86607777112,-5107.829811449172,16191.50344916959,1847.94328745048,1378.817086766783,280.9270194599577,-1510.818397033617,-5107.22199259095,16461.28310923974,1850.5583603446419,1387.0353964413266,280.86054227727016,-1661.9962988538837,-4916.927639162351,16238.28406848522,1838.362474853366,1382.5789310482737,269.2840907918248,-1649.9988578999041,-5060.4450572846345,16279.192212532402,1844.8420659269693,1371.0705972256937,277.2821845927214,-1585.2156517583994,-5057.444616619504,16278.340233608342,1831.7925477011772,1376.5166709180653,280.36393181712697,-1562.5007853682368,-4985.163759880524,16353.298952445346,1834.191856044345,1363.3602866931271,279.3100668681065,-1569.9312007948004,-5069.2470715019035,16151.45144153356,1841.5271535284373,1365.1398490512618,272.255680707714,-1605.7548488916573,-5048.518311614294,16396.103162334024,1856.436056484415,1357.3961534399239,270.34043303710223,-1605.6696845760835,-4973.850626476706,16217.953676576286,1869.337684576174,1371.297405191601,276.0073486252138
-1592.0,-5040.0,16228.0,1635.0,1339.0,271.0,-1535.6548278657306,-5033.558773649173,16241.107243462939,1631.5240652027428,1342.4386476764903,277.37465481928945,-1529.7221908674358,-5015.959709124601,16407.006703336254,1639.2593025545164,1334.9914025920366,269.8811557598325,-1617.484171315352,-5163.01474486283,16284.316572780934,1623.901129955404,1329.0965367919866,255.68570069823818,-1698.4231220527868,-5024.2620616435415,16416.276652003013,1651.2440825599233,1337.7911289781182,274.96868387831495,-1419.12833335358,-5030.302158224359,16108.237562005417,1639.9749567788851,1332.5001160006689,280.0465942960383,-1441.2768323339951,-4944.411742349041,16142.353136678536,1624.4599151475154,1337.230155426082,264.0031294918851,-1589.3487965170698,-5081.842771020005,16212.707356373983,1637.7588099468464,1325.0626841653939,275.86828295978387,-1589.5203278231688,-5108.631738838016,16286.019150636816,1656.1043476078094,1328.9028624970658,267.9316879239499,-1569.7485408380242,-4982.185944133331,16438.57275832251,1649.8531253708434,1340.2743358473508,287.8602203902632,-1434.835695907431,-4935.934563914674,16088.175256670806,1636.2975931360759,1327.5908599882666,269.8521479825216,-1390.02748245778,-5300.734589252067,16116.670872497638,1637.6914736115448,1368.0219489683222,247.55669939886587
-1632.0,-5064.0,16204.0,1668.0,1380.0,277.0,-1592.056397950144,-5020.443996003737,16204.737040122374,1689.2039588228265,1373.1996022442095,288.94428421713184,-1623.339821447506,-5145.307681617531,16051.440421778994,1662.706485616053,1378.6175980722521,278.5457709377008,-1643.7798395618831,-5131.34569422552,16099.621351669557,1681.5692190190048,1376.748392125319,280.1765369418303,-1631.7113336775406,-4965.598619358047,16067.001896139524,1662.9154960319818,1381.290068242125,279.64602709089604,-1568.2958702043873,-5090.053791806821,16287.677970797486,1675.8452677912057,1378.6661138044612,295.69018401853566,-1566.2886356429742,-5096.096862010569,16293.016026949224,1674.7718379426306,1379.6901663479039,285.2107761013543,-1686.4972648474336,-5035.363693189867,16244.710979172518,1658.8679752866376,1382.0228781655585,277.89170146123314,-1566.0900491263908,-5115.45526399441,16222.685438371547,1673.21348137525,1377.0356996890835,300.3279585612604,-1599.867008708117,-4930.32762045324,16196.750421644334,1658.252071316578,1379.5209043149566,261.2620890087126,-1825.1852037040894,-4972.057020857831,16344.933590459692,1658.2142694700647,1382.5556756464707,282.70165116787973,-1609.477933559548,-5051.611254200966,16135.089837353038,1664.8802263587108,1372.3862359008845,296.35387161041797
-1596.0,-5088.0,16184.0,1701.0,1339.0,285.0,-1739.460637447376,-5189.576219783986,16264.099182804772,1708.4758294487592,1334.8987639897396,280.24943699637083,-1603.798382234505,-5207.3266936621,16346.56592125803,1686.8269029943697,1350.3949417894935,271.69100805975387,-1539.7399465384683,-5132.206559014212,16254.002325087997,1702.7121610136996,1338.430781515811,282.6741954005472,-1495.2495185981015,-5149.787905208033,16064.495396312106,1682.3086466115915,1342.872170024563,276.9843269313833,-1413.8723589734727,-5103.752344089815,16155.259365168693,1691.3636011580122,1348.4026890054033,263.9863269163312,-1562.481703758722,-4999.023499635621,16193.328055058324,1713.910908025382,1339.9998811372202,302.796007711717,-1715.1969453123006,-5242.317965375097,16190.890353827994,1708.2125313625354,1338.6892441471803,286.49066406325016,-1620.6884950103242,-5141.193162465536,16265.213933967229,1671.540620255193,1332.8053831444931,288.0888005527258,-1587.1185180068476,-5156.236225639647,16194.830949587866,1686.8388562175762,1322.2402721132771,281.38828858221945,-1665.2834656827224,-5082.965779149509,16156.300734280318,1682.1846520090792,1337.2625769448896,298.14085324636255,-1584.788394032515,-5118.025822997914,16103.925638848925,1689.928815464805,1336.6595841180103,288.72897598411197
-1560.0,-5004.0,16244.0,1706.0,1367.0,309.0,-1555.2864967336143,-4962.262658401339,16123.111161062401,1706.3551513840673,1384.0139946628142,300.6677914087373,-1580.7202148606664,-5023.709066751035,16219.24760214078,1733.1347402596182,1373.1836451243669,301.13410658496974,-1525.071510493452,-5154.354739342514,16203.482639802893,1726.0584719395554,1366.4894713378912,319.5837265166987,-1432.811457717792,-4980.733629983295,16191.35217023944,1707.1288067108671,1371.1545973713373,303.3400615363761,-1516.8975114738482,-4820.505600517925,16169.40821870757,1707.655926305169,1373.6230917702085,307.57864720308305,-1779.6704423961296,-5046.826322313114,16258.174441415355,1722.7412811273784,1369.187932643779,307.5751522170481,-1567.5880345058774,-4993.580278567559,16178.506342372615,1718.0921820136655,1354.6019887218004,308.4830079498122,-1504.7267074931874,-4923.703826373642,16131.492586332555,1722.6968578840326,1373.2979417554063,303.291526685211,-1587.3223869946228,-5160.631524383937,15977.25476582328,1705.3416734388422,1373.922668929163,324.2129663643298,-1447.639711086239,-5128.325981285482,16478.176403009842,1702.3990515312769,1360.2206441948706,302.0379700106065,-1647.1788576877047,-5032.571940390656,16110.62282058006,1714.8528613073202,1369.220433951692,315.30463678584897
-1544.0,-5104.0,16224.0,1665.0,1373.0,327.0,-1518.5705267384012,-5176.751263903338,16307.782792594986,1645.5045518556717,1379.7225996193486,310.6801220992023,-1641.6463319163183,-5227.582710590013,16313.141411597424,1643.2549230285122,1391.023369367197,305.21880367070344,-1643.6055467166918,-5056.026118583437,16134.142488111906,1649.3936965549467,1383.661023139178,333.6708585672344,-1529.661844873052,-4900.279674336196,16473.11908693479,1670.3334290221794,1381.7605413223396,322.7595851817512,-1608.64482691795,-5203.509349041031,16260.946038739063,1678.584649770651,1353.4416545968354,334.3149591831152,-1595.7120535537958,-5334.685599122986,16383.09765281689,1654.8311417553641,1373.2917464944744,330.93409933563686,-1600.5987657874198,-5223.44767327461,16319.891211768458,1674.505679509928,1385.518223579783,339.4664129405577,-1440.013678392801,-4937.488464684965,16086.368552731645,1667.31597013539,1379.2674739169845,310.0833376333906,-1706.8146883789511,-4989.625291454353,16085.817609101547,1668.651158825949,1364.041611917055,340.7162191162894,-1584.8981028721928,-5180.020363814821,16292.135812624872,1666.6143282717546,1370.86470087847,311.63682476309134,-1764.0492454244247,-5116.74337759531,16177.615162895989,1666.0544895203252,1371.8479726198514,328.8428049766051
-1580.0,-5052.0,16156.0,1744.0,1318.0,280.0,-1508.031407812584,-5224.96175515243,16105.690342094593,1742.7197059142616,1312.6028965785472,277.1898072665043,-1659.950810683942,-5101.339716871367,16098.006181492246,1745.479400595775,1311.549082056982,279.28377543143705,-1684.2881275706168,-5023.518667587933,16259.674479845806,1736.790065717022,1328.2333936318744,293.8467711006348,-1694.7427466499562,-5073.9890359077,16156.294569473652,1744.0036918358448,1326.3326888026356,273.75130415342903,-1483.9356937637783,-5116.704589371824,16027.12631735156,1747.7214372974383,1323.5149222571913,282.03545671969056,-1632.2681238771534,-5058.473510371406,16017.948785963887,1761.103170029274,1313.4140020014904,279.50606653139306,-1620.0982406594849,-4995.665459171699,16292.559563601828,1751.0197659574983,1311.493575456638,282.5804068421708,-1489.4314344446154,-4947.337829038284,16278.672436124047,1748.5478761307452,1306.895653928504,274.3227627192591,-1637.4941466260207,-4929.080449064557,16167.041403001656,1746.792894552541,1328.3123405893748,284.4021988003617,-1391.8145115151349,-5116.793585991422,16025.861407681146,1754.0292436178142,1333.0336863574857,273.50432580539217,-1517.8819880128035,-4989.334138291093,15954.599869807102,1738.073467562192,1334.2399621026323,276.2313552361327
-1644.0,-5052.0,16448.0,1870.0,1361.0,276.0,-1811.4523998999184,-5233.472782792324,16457.25384041837,1879.8162936145186,1359.0977641224201,268.46828504625717,-1470.931060964484,-5009.5773364460865,16206.724384491172,1861.159329689752,1357.0333973783438,253.96310977519693,-1716.542800126589,-5181.868561840211,16478.877451909786,1876.414427241214,1343.4250954328727,281.93655459653354,-1703.4916412355124,-5199.965386569625,16468.09695922231,1874.6089001838923,1354.720593030467,267.02640825793566,-1588.4959349436194,-4967.115550551817,16601.73295608589,1872.914352616812,1376.3864719007063,285.17756128584296,-1636.321737069414,-4947.051696273491,16324.892821864845,1878.8894851725113,1363.1493741123,279.933752854488,-1716.4633228506686,-4956.36086030265,16499.27326863502,1883.899348116988,1353.9058039313597,265.3425742749914,-1696.7540394531095,-5143.8017042128195,16456.926662800448,1880.5733263141294,1362.3317852710636,267.20578610728944,-1700.5615381496063,-4978.0240529068,16556.62837630564,1862.1288840726022,1357.1746348227562,285.1503920260915,-1687.0950530963314,-5011.315769184151,16650.456727090434,1875.5378566530405,1358.5491985555798,283.91648952985935,-1628.7774366287454,-5118.181553452349,16664.45300681899,1861.7482063377695,1367.5094842686128,281.3529293577855
-1628.0,-5064.0,16308.0,1615.0,1322.0,298.0,-1746.3953774455942,-4998.219855537489,16389.465616632908,1623.2429569976855,1329.3578405542823,293.41553493862284,-1806.1041992945088,-5040.8220844138505,16325.208891207318,1625.9764331319489,1322.8217989634036,292.4338104191167,-1631.7469298573383,-4938.0714842416055,16204.105805917938,1618.5490176182043,1319.9028865950922,309.1601669910587,-1738.2981621359424,-4911.121020623287,16320.782801995134,1600.8631842272307,1328.8672603619877,295.15534461151736,-1748.8646770411124,-5140.701753259555,16347.314671871105,1610.347333722137,1323.0077162243463,281.5588742965123,-1471.4390780612157,-5130.598087239298,16285.493038962171,1618.4320760100813,1322.1893194329084,293.55035221215303,-1697.8712716305872,-5001.433557181166,16435.31951284804,1613.8700207313314,1314.8936118680672,293.5368081910486,-1597.92780491776,-5019.954388055986,16466.479732813437,1622.5483375317917,1310.1518063011074,307.1696984042804,-1711.6662192324115,-5058.196264559981,16244.376873291678,1626.9044884426362,1318.7222815921305,276.09132499371674,-1804.9620972101704,-4816.023795245296,16410.951257256245,1598.2818742226223,1311.3494886128453,297.55507592590544,-1668.3146220974422,-4946.0729218427,16269.667935315672,1624.5523791540531,1320.498514965467,284.6525698208506
-1660.0,-5116.0,16216.0,1826.0,1292.0,286.0,-1453.0951002047505,-5039.483056226736,16198.175903421139,1822.8127625547986,1285.7617833623628,283.71124909807304,-1784.5783102547666,-5082.983327098977,16202.8065935823,1826.567367954712,1291.0181568764458,274.8973266459814,-1659.0899041994946,-5105.710122396774,16196.312669106723,1835.7495963280473,1297.597523840115,283.2659197152607,-1691.3904558850597,-4998.069108744177,16199.896258826082,1837.1301657571298,1294.5017936900422,293.72906637656456,-1651.4783107712426,-5110.1695298391405,16189.849320232564,1826.3276472553976,1303.8065306251065,281.37744035616043,-1976.767704743702,-5121.177604770672,16176.375621423615,1820.0870551877024,1301.8717550370513,299.1974137628962,-1697.7052176604232,-5203.116109805132,16057.855679072627,1826.4309922533453,1291.0966917273734,279.7558938001699,-1490.603779774758,-4973.954204288635,16150.355606037672,1828.3961286816655,1293.26080447623,270.719453293486,-1695.189717420208,-5138.5645290341035,16153.664178733661,1849.1437647086839,1287.6259892121545,297.89632095753325,-1725.3882004137402,-4927.398575386266,16178.15793701879,1833.5001859775516,1284.8333277799177,301.2211505202283,-1702.3920323166963,-5129.8075608282525,16108.113961440338,1837.5187131009052,1295.795730324923,295.8864477712832
-1652.0,-5024.0,16092.0,1756.0,1328.0,302.0,-1598.4679469509442,-5038.288037862397,16092.030868666905,1755.9988191324965,1346.5279232751495,288.8426087306724,-1869.9458267312823,-4984.675924930778,16144.85352719625,1785.0860432393813,1318.6377502971704,297.56928490318563,-1640.2850289607006,-4877.968312237915,16080.37349234164,1767.547411665113,1326.342480269046,289.62972233122775,-1644.939901412589,-4985.782153959095,16031.678604997245,1748.1802912237044,1330.1818566366856,307.61198606560424,-1750.3488837727575,-4931.58727805522,16099.613391731866,1755.642144620712,1323.3004450864933,296.1351413735007,-1458.0821836446073,-4941.494798652167,16052.71249986941,1757.9628195259038,1343.6973809577328,318.7017148406025,-1554.127980933659,-4886.303796611741,16008.916624264328,1749.9841266568149,1315.7754919228416,304.095804594964,-1802.3000524721658,-5062.497938316218,16004.141515130059,1773.1912297769677,1337.8602201284084,301.75291893659687,-1558.8025950077654,-5124.710329500953,16198.39826396905,1750.3794625011797,1311.0857635336317,308.6696315579906,-1728.3725352600666,-5011.151976954366,16040.636052667174,1771.5609603871924,1341.6316599661106,302.7516507566179,-1603.3347333474537,-5042.184951144696,15869.34480198131,1755.424523983875,1309.5796133151307,315.2168446215952
-1612.0,-5076.0,16180.0,1617.0,1327.0,283.0,-1685.4682547839996,-4997.420925161493,16156.316631194612,1620.1449880742096,1312.669908179238,281.37755819283365,-1621.811406442562,-5119.275582889301,16139.992739876334,1618.678987123498,1331.7677529047085,289.1659010742929,-1396.921339006335,-5068.888101030009,16217.062842269863,1616.5403196635443,1330.221501991445,267.4218083652851,-1665.5868567615873,-5049.61910315377,16210.995250669448,1619.7594039287612,1315.6018234852281,273.061494629525,-1706.9693923870896,-5143.873059215862,16308.744938212454,1616.678471305987,1344.0439696024364,275.6873077031115,-1751.6240060377932,-5059.830681015433,16278.389533369962,1607.6296276370779,1340.4609156708436,284.5676418224301,-1709.4276607542538,-5161.827760783782,16353.422250365144,1617.5282242122887,1327.6060494785336,293.22867455757205,-1689.3319088605874,-4976.085681474504,16225.002647625868,1617.5207337165812,1325.6405534446383,279.9957466500222,-1478.9281174629084,-5000.605104719805,16411.624047119247,1627.3859053350386,1309.5509869968678,297.40091455914376,-1557.0104846557624,-5198.162256723942,16135.472853318279,1595.9209778336958,1332.8998173570553,281.89133899891806,-1429.6715328726107,-5000.73309210564,16217.29855740648,1611.7395159104235,1329.592739722823,281.5483159306736
-1592.0,-5120.0,16180.0,1803.0,1313.0,250.0,-1631.9170272356628,-4912.776358380592,16309.070033293294,1819.5931327793483,1311.1404859007716,246.92311481188617,-1601.5734891386937,-5155.017996716211,16405.14113730591,1797.0060960641404,1330.3314938698256,240.1016659248998,-1590.4012323754118,-5169.414125049489,16186.55369695593,1804.2975709852255,1317.269462136882,252.98244224949025,-1583.7829795436903,-5112.376143018674,16292.689167525343,1818.056400709752,1292.7163587268492,241.16540097928538,-1494.1954085798661,-5079.295504759178,16121.328308371709,1806.9313906570048,1332.3424344793084,253.5375483464526,-1527.2624748484761,-5089.1285246687785,16194.30659962187,1789.7979975102248,1317.1665069675257,226.26531227046587,-1565.2554680269686,-5341.152090579575,16280.189338657501,1809.609235460331,1305.4314199710154,251.5446998224266,-1476.9712300903932,-5224.794749191799,16426.75182723335,1794.3878512381616,1303.8272523409128,256.16732996030714,-1625.1542606268604,-5141.490690868833,16125.068475792474,1806.7579399882216,1299.3700632947405,259.8931163788156,-1718.680870895147,-5384.902773736839,16144.206727888266,1819.6221242649817,1321.7731340268683,261.6436100566048,-1695.5829663878653,-5099.7272963035175,16209.18072737497,1818.295305424411,1297.2879741044349,257.42571732972186
-1648.0,-5060.0,16284.0,1755.0,1275.0,256.0,-1709.5522995232589,-5108.41933122423,16263.643386116371,1731.0761342612705,1277.887827070414,255.42344153719844,-1813.1482240347639,-5091.640014245989,16166.777704914,1740.7107710628204,1292.1096953965464,250.51987945167758,-1643.8254234356225,-5015.666161853941,16258.336993902587,1769.836617519626,1280.2606834982284,248.98468829459836,-1504.7457261590062,-5123.858088708859,16321.77652782831,1767.8286504258228,1278.1906483456366,260.69570781079614,-1552.6093202329387,-5179.535039828355,16274.298173889709,1771.4842725680107,1256.9285327226958,273.70855426059006,-1543.465517632371,-5260.351335974859,16205.952012434314,1759.8816364708189,1284.0859810971488,272.1750873735757,-1541.8461373438101,-5121.795184614248,16313.029545114408,1762.1748856992933,1286.5130127253792,254.07018234466136,-1618.4142214096912,-5120.41770841837,16154.845686710287,1768.7285430769964,1264.088793787239,255.5704497441041,-1596.9971932061846,-5088.84799232512,16323.282886706156,1758.481548170818,1272.7651785550725,253.79114125490486,-1757.0544161967416,-4914.262703246446,16293.92867060534,1756.0182202141286,1260.1200179939772,260.4409087494918,-1790.3713057623704,-5157.313058963689,16305.700726002231,1764.232867156986,1271.954362031278,262.6236565078692
-1648.0,-5108.0,16292.0,1654.0,1298.0,251.0,-1736.8832770871727,-5147.524478138174,16199.663996231075,1663.1630627397676,1302.5414721067289,259.27361677102385,-1642.4450004262883,-5077.4174390460885,16328.826195310121,1641.7386013144142,1294.7091599739158,244.35725467346384,-1601.482076496113,-5225.422512115237,16181.566878684727,1667.4366790699821,1297.0166955526909,262.0747121220406,-1672.5755788941535,-5168.007245473422,16498.27739831066,1649.6141615761069,1290.8125287260123,265.53089799747033,-1509.736050499745,-4834.687758854212,16378.376668894927,1647.6806354711,1307.4142451738599,266.9081889995407,-1767.1694477591934,-5028.039524078048,16196.881831486304,1641.1908445352412,1308.1732240903573,262.20247722392446,-1639.3437427634215,-5174.954619014978,16308.129947729896,1655.2571444283626,1285.4590322767783,236.22676449699767,-1548.8313504213847,-5231.468763455648,16239.404544452293,1649.0427023438888,1308.8890015231188,276.6244199400982,-1640.4675304038917,-5034.762003005401,16177.328946112093,1651.7012179875228,1291.6504467934994,244.8196899982234,-1726.8711761916331,-5231.289340499708,16412.54662980083,1653.2671479842666,1294.992885802574,236.21494048143526,-1749.0447452031633,-5091.723017563806,16461.54191695728,1643.2322943713825,1301.2864703086284,257.81215086661064
-1604.0,-5112.0,16112.0,1720.0,1363.0,284.0,-1592.6067563779527,-5093.5525984927835,16236.703844179823,1719.208262448152,1364.2843378433472,285.58292251358125,-1520.3515134598838,-5189.629093989895,16152.371367319643,1725.0065818009637,1359.9488279644802,285.8631733935284,-1580.370035206548,-4802.647739552596,16064.768779698657,1700.3348998028962,1373.8918099369273,290.7024680038753,-1470.3394229854962,-4978.016256323286,16247.647903283212,1722.436868690098,1365.7182274013815,270.8551611092967,-1757.082351602261,-5176.949104961728,16002.68532449085,1714.6042275266996,1369.5955528731747,276.5176702219015,-1783.226111914889,-4894.2761745286525,16215.452695467866,1718.693395386956,1363.5491431434891,281.3699988283746,-1607.49849575701,-4986.081832770989,16063.598444482463,1722.6838453648288,1359.0292311062888,288.7082348238573,-1620.0950276822432,-4975.858922436522,16205.834081851614,1737.832789381469,1357.3676313076915,269.1199965260169,-1689.7859172956184,-5066.450484435648,16083.159062370016,1719.2038663123326,1357.4420569913227,283.76989394495024,-1508.8502299831114,-5047.520838026975,16293.581080625037,1716.688051025513,1366.9259929649286,272.7977869293254,-1450.6035990306582,-5104.622596671847,15954.813377077846,1712.5369860360227,1349.594321783373,278.9470803034137
-1640.0,-4976.0,16156.0,1941.0,1399.0,249.0,-1697.168475803494,-4801.183328423304,16212.452551644765,1930.1108425820364,1398.5762747178342,236.64578387193086,-1483.6619900156632,-4994.41576624402,16159.126670850783,1954.8114014462576,1401.8711214941634,258.02924670796597,-1709.3034644424326,-5027.916089124013,16105.875728829944,1933.709309316995,1402.2116190875372,228.10014451646518,-1651.0915656705336,-4875.197399602016,16162.065975204776,1929.9516639375543,1413.2148947978048,253.0009919234934,-1479.017049532927,-5048.967807757711,16166.565404769106,1930.9973314448118,1409.0731380276413,257.93527823456026,-1781.2926642664318,-5098.516984840905,16157.122286830974,1945.7333640190125,1395.0167437522214,228.64479437889324,-1552.1767673009476,-5062.382224806478,16279.507815785688,1944.2907648338748,1405.030945678867,258.7461520413719,-1652.5301518398753,-4966.894886626628,16173.312732529324,1954.012092800199,1409.6465169176117,255.7999534228453,-1686.4917575693612,-4893.810463826288,16146.552785638329,1949.5218461362902,1410.0307147140234,242.7974080035862,-1718.2865741652458,-5129.988343225814,16096.461037528117,1943.9027075849351,1392.7103826137138,235.7326516897643,-1715.0290161745613,-4927.411891286213,16203.460474887983,1941.6543720687193,1392.799712380659,248.25566335290904
-1648.0,-4976.0,16272.0,1638.0,1272.0,295.0,-1677.8139359022305,-5144.988413082316,16257.351153155567,1626.7377351329499,1273.5912044215129,307.44672750257035,-1839.9652244184342,-4853.029665885487,16186.971364296505,1641.5212022781502,1284.2117376300105,287.68479962079164,-1762.495152862125,-5029.136785927221,16473.161394316194,1639.5415128883033,1284.3886438215252,291.1825594298131,-1653.5002622050733,-4965.773509996966,16304.477905426022,1638.1231534133765,1275.7376094142737,290.27085398661046,-1645.9216637479828,-4948.250793944367,16245.747224765048,1639.451799435953,1263.1776011672084,278.9545787486936,-1746.0677806005701,-5003.760590502016,16235.940839144603,1629.737957409828,1274.8579369034392,289.01009037704415,-1737.1955001862154,-5014.983157995206,16309.976260597035,1642.5473052584225,1264.0049092438824,291.18356435403444,-1790.8555521377668,-4796.9295192776935,16283.074849413959,1630.9712691447971,1257.3855422432325,289.28752661513994,-1547.2506528293297,-4901.065231132409,16176.481794057796,1639.4574313972225,1263.5028868445297,290.36235781667085,-1628.2898676233872,-4900.884594065607,16253.391584060515,1643.9111122544366,1267.7877689176266,313.3004432313637,-1797.7443626699899,-5022.55500999458,16226.391496701319,1635.9517216822985,1261.3232379645979,315.95242090129267
-1744.0,-4980.0,16096.0,1657.0,1297.0,290.0,-1679.672322747865,-5067.898370363214,16102.102062376209,1667.392105891243,1297.90154041824,271.4732991590855,-1722.1402216577965,-5124.691487322663,15938.772357259379,1659.1860791125248,1300.3623910756824,287.7368955615621,-1869.6962834122467,-4986.469972195224,16130.689105867135,1658.7155722045559,1318.2277359387444,284.1124849197796,-1724.9802354940584,-4872.927398271035,15957.136105280879,1646.30806582544,1317.9154070984007,293.8911119931165,-1699.1519750796133,-5025.836153755129,16004.158003021224,1653.2362920160497,1292.9218734504539,294.7855592100737,-1835.134749957302,-4929.625542752736,16002.892726949029,1664.33036173583,1288.7156159129336,290.5078425576512,-1673.418009198637,-4894.249637804484,15964.828969155207,1653.0816386623605,1301.5734288496685,291.4396136977111,-1681.9282144261056,-5043.624241695696,16205.24683942317,1628.567062116638,1284.6888025051007,294.8374554530451,-1689.1889330117888,-4948.012983298486,16045.075016844828,1657.819916922204,1287.4720129597088,292.42740622494847,-1810.824474761858,-5011.301684920837,16061.314052110423,1653.70622823614,1288.517912673352,269.74723098107216,-1606.5123711769718,-4956.522986993939,15984.153785239962,1656.919526293263,1296.6079858227836,294.30750725259594
-1496.0,-5116.0,16092.0,1654.0,1295.0,286.0,-1563.1573397490984,-4993.301966525311,15926.959855539257,1650.782904300499,1297.1334312002257,287.6405084303401,-1548.7807631177973,-4897.742605643001,16107.53481494685,1673.1741413690363,1314.0837662621693,291.14769308456073,-1316.419833856764,-5022.733410898568,16002.369994345152,1661.3634194020678,1304.5112772609775,275.4385751349348,-1389.053459258134,-5108.667131755903,16311.005033459409,1659.513982365424,1296.8947407620071,297.9229129087618,-1517.8729937952894,-5191.243311602857,16183.695519886302,1650.9900188535441,1298.9319420918962,295.846278044277,-1583.3715749186,-5168.427895711202,15892.574484112805,1668.4319743226274,1296.4809831236687,291.28864109340157,-1529.3125134443112,-5205.502112931113,16261.529965931355,1659.0587895715937,1271.9650564769129,281.9170954877318,-1416.9675789469425,-5246.910633265549,15811.833257491431,1643.1086200777177,1276.2449006987401,298.3300635422259,-1562.1679246890415,-5118.044841670075,16043.67167875444,1647.1053236346302,1289.4319200331863,277.4770471086936,-1593.370097282713,-5212.643828161598,16224.111816291585,1665.169995753923,1305.3610626061911,291.44357150286834,-1677.114771742059,-4975.935201952923,16003.926660590068,1648.3714049620278,1296.1564963796432,286.4296577287459
-1400.0,-5048.0,16148.0,1905.0,1338.0,337.0,-1366.982309412749,-5105.3604870531435,16246.932136866675,1918.3293435293251,1328.1656430766993,323.09732865635783,-1494.902372090416,-4889.27912738748,16046.595933813891,1913.5267919253206,1351.1119865524317,330.14423736660586,-1441.1233473877244,-5083.803979061015,16138.348288683974,1921.5964513254494,1340.4127713043424,337.9205304571843,-1316.8494505255492,-4885.611708138606,16203.264394864229,1901.457832768619,1345.126820543516,337.75401863578776,-1539.3217340064416,-5056.807976658025,16130.595269788522,1905.072883758742,1334.2398460115244,314.8088397739767,-1268.1429462894218,-4879.903868634202,16002.767974385799,1904.5401950272785,1326.0255795482617,344.16941712646064,-1300.9921496989523,-4837.768717015142,16067.918146265803,1910.2211062239244,1317.7300195620749,327.3316825240714,-1276.759010459585,-5062.282007349225,16105.745240626478,1913.8039025214248,1336.908603903342,322.01396940456664,-1419.2268879057156,-5088.731508499432,16165.98296673003,1901.5866382561621,1335.0993588360986,323.05465280274393,-1521.9043551457028,-4873.701196101256,16123.043876966978,1897.398057321659,1328.761164888165,322.50452491351217,-1419.5149651592646,-5171.251292218134,16170.630968373485,1892.8899390232718,1331.0555785655074,333.92880508693696
-1628.0,-4948.0,16552.0,1701.0,1250.0,339.0,-1616.1952707945723,-5032.903116796916,16610.328849836318,1683.129494792716,1242.2865150786965,345.72441247937405,-1701.6406447529503,-4978.336363780803,16649.443947456482,1713.950292053142,1243.6744938934933,331.9505388462748,-1575.0511339523764,-4818.496561569218,16589.99563965132,1713.8724841011342,1262.3946023254728,340.1528612402368,-1468.2372722766663,-4925.795844791372,16479.634643048095,1691.8994922068985,1241.180818610728,312.3691281191102,-1609.4317157068506,-4949.123034466346,16694.285012917324,1693.6302205824857,1257.3134176650944,318.16167805061417,-1757.1368105049955,-4911.413864558116,16472.306553177365,1691.589205012307,1236.423247158897,338.5192499381411,-1555.0397908698485,-5036.475342740141,16524.662929434355,1685.4038250717663,1243.4289780433246,320.2329366050807,-1667.9944396564833,-4950.99794597891,16675.907850999323,1705.8330856023754,1254.7611558593983,345.1515709615925,-1566.661250264935,-5043.722574297018,16448.99524707255,1687.707182381159,1243.252716545654,343.4480028761468,-1634.7201399687585,-4884.794656884009,16492.421126757752,1698.0419270741286,1238.667351430775,348.7323551483334,-1755.6732179071619,-4936.494012749729,16647.374997199186,1689.4033420095752,1244.1124196282728,340.9350947588438
-1644.0,-5068.0,16224.0,1643.0,1331.0,350.0,-1568.255039950064,-5053.109972326591,16009.410191899,1642.7152742852377,1328.0456201288287,354.33517636071986,-1586.3111647237993,-5157.480912738031,16273.077691146269,1636.6401077635019,1308.1402936943025,354.21518417010077,-1646.523654910224,-5002.657173539753,15950.107865340735,1657.8740866098603,1332.8461727470233,353.80761496538173,-1680.0544251943581,-5011.209442686755,16261.007220831894,1632.3837663663762,1334.587931703042,357.13683959292007,-1654.351740569649,-5123.339169706902,16297.015995573349,1659.8458970792606,1337.4465116422607,344.0468945855659,-1695.219448440781,-5044.638666988906,16286.252175722482,1655.3166671891854,1326.3554651676027,341.2610352596911,-1533.8732102865379,-5109.628751132805,16281.759571822084,1649.250187357384,1305.4718735597112,346.9169946467698,-1662.0317116571323,-5085.0343387093,16354.079436827173,1651.7193314000322,1334.6096982308713,352.30598253552614,-1515.570387518725,-5167.121336751169,16077.533063942,1650.711888130855,1337.5997122089423,346.48711237007495,-1614.5927698574037,-4967.476749680404,16364.400839344253,1629.0031509613113,1330.7615903296714,339.1281450816178,-1538.4979610441837,-4962.747273636999,16054.669411807734,1629.7709284994721,1334.8514132651026,351.3202806015796
-1604.0,-5000.0,16272.0,1849.0,1246.0,284.0,-1636.0568668482545,-4975.872249871665,16344.828240805673,1843.0992737155843,1250.3317731751213,305.39982071867433,-1595.2500528458781,-4894.0229725365025,16426.85592589412,1831.102767442971,1257.697971430956,292.1258365717334,-1580.335761443176,-4919.395620281357,16165.793839364673,1853.7465086209827,1257.604657289345,273.8265938604646,-1663.0134683910967,-5103.595538768509,16277.036071786959,1842.5060727087405,1244.4176594583855,284.2243504217395,-1604.5004629529276,-4963.048285704411,16259.756922594139,1835.088791461067,1266.3744158843826,282.6827497765952,-1536.1817646492598,-5007.994369117484,16217.379520245055,1860.2665530812221,1259.2823294164298,310.0051351889664,-1656.461606901872,-5096.025040756878,16213.020564659673,1870.509764580524,1246.362685656564,280.95427800514227,-1683.2554056628721,-4996.063976973633,16102.985497228994,1848.5814687000445,1248.797710375915,286.9864224249131,-1650.861911549835,-4960.194976581513,16456.902079643773,1850.0230478260771,1249.2062238782044,270.1651110339485,-1623.7765721454125,-5029.136251675924,16139.242650239183,1842.7175997712527,1236.0971942998526,291.88073932437396,-1701.487735972526,-4933.736965871835,16228.433539087951,1847.4791410985194,1227.3432851194566,290.745077122862
-1660.0,-4928.0,16176.0,1646.0,1288.0,308.0,-1593.211163472979,-4806.592788589028,16079.383201148386,1643.263662990656,1274.439378812392,312.28341899495484,-1663.8652921335017,-4833.196935131901,16153.871852088389,1649.783388545864,1290.7193353523305,293.07149985106525,-1625.9902404004063,-4918.364152661363,16159.294126928562,1644.6039876116145,1286.3450426874756,338.46462134895785,-1640.5566995546098,-5001.382164433136,16280.804575918019,1632.6390775172824,1303.2970568078747,305.93193162493793,-1642.2861610592904,-5022.651469839073,16197.39834324438,1648.3066177755304,1293.467900583674,304.7504687795858,-1626.3417084279577,-5039.402385046888,16294.092901907623,1656.2559411262728,1290.2597371520371,299.78158485021083,-1694.05276784019,-4905.089026419391,16133.526036119085,1653.7922666179834,1288.8590057969684,325.952076818076,-1870.9518819149475,-4990.399585152716,16212.71040539808,1655.4078381097888,1265.3671835232963,309.82178617983595,-1728.1497085512874,-4786.2846338486515,16200.030362205267,1647.7888816383715,1291.2649074805183,298.39170568041413,-1705.4987622499223,-5037.622065168105,15869.047488890423,1650.3405812263184,1304.79666781059,321.05716553744406,-1496.2273942984657,-4925.680320372937,16049.423020464124,1650.6669297850206,1291.0766248126529,304.4439656373735
-1448.0,-5228.0,16136.0,1516.0,1271.0,326.0,-1484.8825963513957,-5313.572128268463,16406.421829769344,1513.4538090427402,1258.5043625196543,327.00152815754626,-1529.6050671077307,-5284.674180992786,16006.194252471556,1514.644952490951,1260.9995894508543,306.6389931676184,-1515.321688533287,-5189.138188247142,16231.446639207228,1527.4495356591758,1267.7073743339552,324.04961402848346,-1438.9889761700756,-5210.118552320696,16174.925643472936,1520.8189571184216,1290.779057528027,338.5584842584962,-1425.4519315549342,-5140.383851095656,16113.776460663197,1506.6412368605108,1271.007616372945,335.2924986050789,-1456.401950395793,-5267.917163571475,16034.214353780686,1512.21766241754,1271.7059180010485,334.7787797070314,-1427.2550131053986,-5096.408817403065,16008.102657370935,1526.6419535051239,1272.8537851957408,329.9985356012643,-1581.7248831084619,-5215.3861604627145,16191.4055263905,1507.9624075791762,1266.0642785740615,315.6636280131637,-1650.6119246744827,-5242.555626824775,16172.304102429756,1520.9551339896525,1281.180664707371,317.92902289529616,-1467.4701521736724,-5185.676795951144,16117.947947972949,1515.3032363035368,1281.6133926678617,324.6899189777178,-1447.9675336403818,-5090.096194002777,16048.913221729417,1522.2272581855414,1284.2154719822909,313.7207449325662
-1560.0,-5112.0,16224.0,2044.0,1308.0,262.0,-1618.8751038616003,-5209.498105251185,16303.122839222231,2027.1202429095083,1313.3117423643175,269.5005978034372,-1521.2518665990283,-5275.296366401131,16236.080003537487,2052.425841825616,1332.7676239447674,260.45101697368244,-1611.4679590209162,-4932.692066384346,16297.414466665814,2043.9637053779052,1304.1555227686226,251.67736816201128,-1581.3230770966145,-5183.942249707557,16134.018691091313,2065.204511364065,1305.937180926576,256.2304762844887,-1577.328277454699,-5116.762497064445,16233.188831950532,2035.685893051897,1308.6200548267248,265.12486105580894,-1356.6872025394136,-4963.449845093441,16315.553263322136,2033.362351541003,1313.483190640109,252.77917872017485,-1512.615500585148,-5115.015544595566,16124.552497089477,2036.5845568975215,1313.1710165833326,258.1938179888338,-1514.488014427673,-5098.055580186663,16152.69465314019,2045.4023500336868,1314.374056104787,262.65913722373625,-1485.8736284691004,-5200.262727999995,16287.684739907827,2047.0604178692654,1297.967412955545,276.70695111566835,-1423.173919812598,-5037.679787480827,16272.875906766769,2044.2794593099215,1303.7038304631187,265.9108154858192,-1427.8251277084753,-5195.323152994156,16236.499580945361,2026.1810905644584,1308.7175995637724,257.96313712729665
-1656.0,-4796.0,16344.0,1628.0,1328.0,309.0,-1604.2180505217423,-4853.24103414232,16338.332694621276,1626.4561149312556,1337.0403628827987,311.2297926292298,-1621.9383587074576,-4826.048665639885,16517.181157770003,1639.8488445040496,1332.107800857336,284.28029118537086,-1585.4493307475834,-4791.460021643688,16346.96614365249,1615.718544617165,1326.0479118091557,303.15497215528194,-1634.6198760353216,-4809.937335719876,16483.96557727313,1643.0950788058049,1323.146977730922,316.3171929861306,-1634.4446862849927,-4748.0707848165275,16013.936109365162,1626.2243635950933,1316.2846197449953,307.9563472180019,-1682.5900032714706,-4987.359143489983,16450.64764452679,1620.595825730701,1312.2662030951708,310.0246237709017,-1729.6851807491655,-4755.605434971457,16454.555636948815,1638.4930411789614,1327.498256745087,302.5451057982907,-1625.8999993616276,-4860.964861088567,16339.093193698433,1641.792680585278,1320.3380699723505,313.81025377822584,-1803.5196547115488,-4924.962498130812,16419.80648920184,1637.8322068953985,1329.0120775181238,307.2956436879051,-1544.2309932115897,-4869.434328658812,16340.481366118027,1621.4062100137921,1320.2664548901037,326.05463004306546,-1607.1252729024059,-4745.06448191735,16338.983230520653,1610.7385319114553,1323.1700447370729,304.11567918646705
-1648.0,-5236.0,16156.0,1365.0,1335.0,343.0,-1623.3171309786987,-5283.023365477761,16208.524146019148,1352.719943103186,1338.1871931134822,348.69964114858993,-1658.4999622588516,-5265.094060957281,16093.07759247419,1380.612316128925,1357.6232042584445,345.9579363593787,-1619.1683232309506,-5186.138253986137,16140.067741448154,1379.8864343596022,1357.221173377195,345.3290258153368,-1616.0200302242513,-5246.725361866891,16214.499517094426,1365.286820907253,1334.3738874675423,324.37879632945493,-1700.2055628823077,-5184.247300807927,16093.883421331662,1352.2839364914175,1326.1633865195029,346.38965363681723,-1728.0821226752732,-5216.925526531228,16184.955742022448,1362.430163340788,1343.3913812466653,344.64117368920824,-1676.832212278426,-5213.282923077622,16160.810683039617,1358.039915605211,1337.546328334272,350.8454647993639,-1782.2793270945856,-5188.313797548021,16087.225260172718,1372.6556880892706,1335.5922284294427,345.8030771461812,-1720.4104726139628,-5199.268662531218,16150.746953877257,1348.6228806194088,1337.736404381263,336.9476814695914,-1592.6594403116196,-5127.866270288745,16199.965939537327,1364.0729061728707,1344.0280726154806,359.4042644064109,-1562.4547215976643,-5237.509257112058,16133.714415555718,1368.990970892958,1341.174276570795,339.53780992550566
-1548.0,-5172.0,16140.0,2054.0,1356.0,242.0,-1566.6143966571626,-5095.497337688904,16154.6134656556,2046.152475884974,1350.6263386868104,226.1963891862167,-1466.633080074368,-5077.318053549025,16055.653040080417,2055.3444814751506,1359.7833795492995,240.2037371445848,-1498.8851903405543,-5087.100136276621,16221.080565882246,2073.015988964051,1361.559617178128,241.71141064597492,-1469.164928094856,-5092.706656551242,16086.455402343225,2050.5943911335075,1336.8415653331153,204.88854004440057,-1397.1206440798303,-5209.671087185786,16175.042686114477,2047.7890856560366,1363.928038643498,248.28473968476223,-1511.3956569566508,-5213.197439741111,16154.400617153839,2070.981489589491,1333.237193682177,237.73661353503834,-1490.4262060840674,-5079.4175818689755,16034.565272834236,2055.827656289911,1368.1104940483233,261.8667988331664,-1673.4754268697516,-5217.084392970116,16173.436555915367,2057.008579054237,1355.9587175393733,244.62213900394187,-1640.3197866201886,-5194.528602493084,16317.874719579557,2082.068803554135,1349.3526780800994,235.5009689248047,-1412.282271438808,-5055.505563547962,16180.3715871012,2058.319670758151,1347.3787509930203,247.39883046518426,-1546.3221803572712,-5090.982341126603,16194.787794760116,2073.8370504464647,1357.4571273818783,254.80175796652148
-1644.0,-4864.0,16328.0,1742.0,1316.0,303.0,-1551.2700351561423,-4895.459202714387,16410.385031950213,1740.0564000904071,1329.8318083986137,307.9726868503694,-1573.9678117211708,-5040.019849208649,16323.359502952528,1737.870851991323,1331.8220152213914,298.8428988616313,-1451.2744489366003,-4779.599921010143,16437.962553246944,1754.707128550698,1304.9154730699222,319.9038488209033,-1630.0594806922525,-4902.046912008351,16289.934192263323,1737.693595089346,1326.8199447185602,304.70623784151655,-1654.9992511683395,-4861.823612620467,16358.489025785311,1723.687114218264,1322.2010379952592,318.00645202185837,-1708.5473877696086,-4738.512353141952,16208.849185443678,1732.0504646605002,1297.5619844511568,327.42510747884137,-1621.1694926898838,-4863.282275832783,16335.800567560362,1733.9610636823295,1304.5235000791997,321.80660742440057,-1707.4932210004006,-4904.850341332001,16432.535945043768,1751.6218986789138,1310.9212141649896,307.5773858865553,-1697.6281183533958,-4987.225280674436,16457.434360402018,1740.6546387051176,1334.8994681964775,289.0286856907885,-1609.5536205804478,-5002.985421660442,16403.40851508334,1739.5639321802698,1320.4807898860013,313.08545013729736,-1696.2419608300252,-4923.59303038323,16338.431549323772,1733.0716405911867,1320.1882257982534,305.25578323482887
-1632.0,-5168.0,16184.0,1440.0,1372.0,318.0,-1726.9123970804333,-5013.221761886864,16106.140632945237,1462.6378443913406,1379.988683784536,318.3619729357726,-1548.1377456069565,-4944.0526937055665,16405.257608222986,1439.141934260514,1385.6451339084745,328.6423558723938,-1622.4894680988182,-4943.774526487986,16103.20156191511,1440.675135902738,1383.0368934970184,315.0684762753652,-1650.571146349501,-5125.932690065924,16357.711162567753,1461.5636628286286,1367.6270595786361,332.6329195914017,-1429.5006946153424,-5200.169640049658,16321.091023713807,1443.1059444188481,1360.984015168504,318.9856612272242,-1653.7614651358208,-5092.67907014896,16328.389565744252,1454.0747946340703,1374.5506658773613,319.9978202760302,-1470.974778548717,-5208.333808750032,16187.112095237004,1463.7820467727472,1387.323486531287,321.53384022555343,-1783.567664109177,-5171.522370113447,16225.935877791564,1432.0346087304808,1369.1951625796153,309.98389071480244,-1517.0855193164448,-5237.074382240501,16248.332942179424,1440.851902169616,1371.7503006855948,317.51966586958906,-1610.3810766358213,-5100.946253815573,16211.079827034402,1431.9134054740562,1377.1582982292787,312.12309520218923,-1703.711093238329,-5383.0457925070095,16152.477632524999,1448.0782481735055,1381.8030822827232,310.9692605271958
-1644.0,-5148.0,16108.0,1908.0,1378.0,241.0,-1855.729583588725,-5284.0499655007825,16098.313323982573,1905.4236897221115,1382.548294687885,230.5860136718003,-1605.9682712815377,-5209.155818790283,16168.183316570143,1911.266465862076,1364.4708281320904,246.2263176161853,-1515.0615315371099,-5250.908912586355,16113.289569945558,1915.5943982803972,1372.6434977525948,241.65984906893223,-1845.4058152285431,-5233.502941447928,16073.685945755818,1918.2685949671122,1377.89416384726,237.09236623421597,-1628.7523477124466,-5217.510554584385,16123.817781210924,1904.6865160541954,1396.308496221329,251.13959383989487,-1585.416827367005,-5082.787979580116,16085.268918922591,1906.9843963557482,1371.8033694279068,249.85309936587402,-1689.0715536457496,-5240.349699081003,16106.165575677005,1916.170311081819,1386.8172239744345,236.86384343286255,-1571.3667691856197,-4972.477069623725,16071.457068417165,1916.9736327118596,1389.8663624629357,257.3376517647327,-1640.5963479830557,-5237.724091544483,16182.285955893341,1903.9861089676015,1382.0364757730881,247.8114975130244,-1575.347396466353,-5173.4911406485335,16101.727232938463,1889.8103982409157,1366.6508621179842,234.5339313373726,-1767.9509834700932,-5108.024630487558,16048.352589968652,1915.3112784359032,1379.871242707628,232.29918724722305
-1544.0,-4964.0,16240.0,1785.0,1285.0,290.0,-1635.9536952712315,-4740.050591324033,16265.637614224168,1784.2652316651056,1270.5051249992327,301.8487255077423,-1762.8896669673773,-4827.147038386975,16188.695128630332,1773.592094391268,1275.3809513994322,282.5268434213843,-1573.3350754450069,-5018.918637637224,16182.503903806231,1792.02378246028,1287.26198128258,283.756900747147,-1498.2895008111166,-5041.082835452643,16130.946583987981,1782.721489005335,1292.0545035320602,307.4002178301961,-1523.6028577693887,-5032.171125170234,16252.602563824325,1788.7314467803003,1280.1747253240458,288.9625810618263,-1366.029184823567,-5037.783454491416,16180.026685621979,1777.5546265994187,1280.667023261867,284.07235080270226,-1605.2608320722582,-4879.263947798361,16144.595213999917,1791.0067458929225,1285.2675470781237,302.3115889154188,-1686.0166611940913,-4862.20337434348,16491.30150943165,1793.2135795331171,1286.9735435630287,286.992191576932,-1562.9949572228304,-5016.160387199891,16225.30066427759,1776.6148748502342,1275.9526721548075,283.20346408941424,-1480.5955185454368,-5062.583943728743,16311.134198160576,1778.5769394188137,1287.8924580043736,287.5582969267642,-1649.1994121124783,-4924.125031781356,16237.273548054629,1801.5120792671619,1278.9151704175526,298.27792688947886
-1636.0,-5188.0,16096.0,1730.0,1228.0,307.0,-1604.3063572501794,-5012.198034850702,16250.590597448843,1730.3094582534418,1233.9292633019143,311.6722117248329,-1612.2807127422411,-5067.75711098141,15955.695634716049,1728.5029109261277,1226.7934404495622,320.11176047323187,-1883.693005710086,-5255.839056014602,15989.37693868042,1724.5378254525763,1233.4531010723072,295.780121092388,-1656.1289554200962,-5161.333714998301,16303.105929148895,1743.8244661867534,1230.6159932567339,302.55376285728374,-1568.1625239517,-5189.354575191784,16078.710620268503,1725.910264972138,1215.439068237843,309.8579593509487,-1602.0584608716981,-5312.20890325644,16101.8134874141,1728.7319118072392,1237.4598045858845,302.26643218438835,-1585.460525349799,-5227.487040566831,16174.324949203548,1733.2428857127375,1220.5907036393648,311.2243397007103,-1619.6778471585155,-5376.386989869054,16006.84166513226,1731.2965251175906,1232.1537338132935,325.2107867768614,-1724.4805970723446,-5270.449780471662,16171.241312611346,1713.972797917856,1244.6935447433668,307.333164633646,-1627.3972059867147,-5442.162176664659,16120.45615521494,1726.8186668131118,1233.4254114475063,303.229345497747,-1726.5596473176229,-5224.0321623097625,16025.942280692418,1745.1765192110347,1223.6815036407115,299.0716997868606
-1596.0,-5016.0,16116.0,1826.0,1316.0,279.0,-1625.9097397093965,-4924.209292952766,15934.506390139955,1814.8935883990823,1317.9795749429018,283.22243786971285,-1458.2736179346216,-5069.188745352835,16085.84781788987,1829.119400097949,1326.3733400443687,251.98042513375833,-1765.3285272018018,-4983.827507379333,15912.910616929192,1829.0277982227674,1297.3169057588204,279.5729897508505,-1573.599402225106,-5104.203721162917,16134.947812781262,1839.384658864023,1308.0396321851956,296.616265395345,-1515.0676419236122,-4958.571663784676,16134.682445529032,1836.5306571623732,1315.7822409143953,281.0825734837135,-1535.6714890515605,-5190.350998751529,16018.176543388236,1822.0267398960264,1320.709721665778,277.8237297663348,-1686.5507383808888,-5042.385716091103,16127.957986965468,1827.2228240480501,1317.2887978022404,263.87046206224454,-1682.5187953518816,-5063.612545202975,16238.912080769273,1821.8906970158082,1310.7695586542313,273.2667199907305,-1552.6343872870582,-4997.177229302346,16180.469811236077,1819.7954927572348,1333.3548922462087,284.8179539257225,-1554.4829647628387,-5126.177368928439,15996.323369238506,1835.501704265728,1324.0995580540618,289.60287757354996,-1638.338836646309,-5011.4396276272255,16250.34237484763,1847.0550180796197,1319.0026175497285,287.62126976908047
-1636.0,-5096.0,16140.0,1728.0,1364.0,296.0,-1723.8765683943184,-5072.641542408786,16264.586004325485,1718.820678406296,1374.290557475752,291.67837103569775,-1716.1550513386567,-4858.791116043772,16122.2550556406,1730.047420465325,1352.9332236424789,287.83051064965485,-1627.6686469484139,-5018.868290099476,16067.714080991567,1741.958978022259,1366.1357679263963,289.06227477280504,-1614.9531425650187,-5010.930659149293,16077.871161122292,1734.5383752973742,1377.4037775251466,289.76083367314726,-1602.5703144282354,-5205.629458567988,16164.146992028383,1716.6267052595485,1356.856101868975,297.8507236296321,-1624.6894130036335,-5197.606323284392,16120.656658601125,1732.1454992312383,1367.7117556667492,279.72577248182836,-1560.2223878422365,-5186.882261269483,15985.008869875646,1728.0294496954423,1362.4848203954361,288.2679545090447,-1547.846777076262,-5074.963078734339,16139.023308829543,1730.0070524390173,1370.2725547871066,312.1876658538042,-1741.312824126725,-5327.621173313458,16274.968622481254,1739.8360006759767,1355.7727410937046,292.6938264805881,-1581.413390925427,-5120.8486132257885,15985.732046296931,1724.3792791497642,1379.3500049002505,299.88184350606485,-1684.0691980754789,-5135.162448746891,16130.04164243831,1734.9305847667974,1369.5289346035959,297.2626594826931
-1596.0,-5140.0,16328.0,1612.0,1347.0,306.0,-1684.9079384151228,-5275.752031254255,16270.272472529137,1613.7006960629326,1331.1970938509733,306.3961749420552,-1507.845177944477,-5346.001334584951,16389.114336417904,1614.49335290322,1345.4608171027573,321.73049390659725,-1827.9708384649336,-5288.862112256417,16302.020239992344,1608.648766658811,1339.8817061742936,310.9598574861902,-1540.5230079940611,-5158.848344389895,16329.175855885878,1619.0947672356574,1338.1469972617213,299.0473515076889,-1524.064719569783,-4932.892591417045,16378.459699624898,1617.4544950512134,1332.736931050104,310.1574326170066,-1595.717496918342,-5245.210990302907,16177.854040333792,1632.7698171934985,1349.1936460503052,301.55283789325335,-1505.6681407578137,-5107.62249272343,16346.256722543187,1624.577683986786,1328.8635292082845,318.1377987459162,-1553.2456222027836,-5045.595561680269,16192.487474510226,1612.4848265014157,1343.740466464742,288.38740181636206,-1546.463725643435,-5105.505586139137,16406.681547618817,1623.8909471376667,1345.725521306371,323.3201824837613,-1478.5938444057085,-5272.8545333501215,16355.884125880784,1594.5845035744883,1340.9854279067688,308.1483965059742,-1599.5338524441788,-5211.083011166785,16196.755181528513,1606.7486985458863,1356.8078178747573,306.9443610832947
-1632.0,-5076.0,16228.0,1825.0,1377.0,307.0,-1559.9806957506892,-5014.912552035408,16180.205812559327,1835.1875742033953,1380.4926630811995,309.6326165271093,-1531.5247650756307,-5031.890439361396,16183.527722929046,1827.0783328671916,1370.6435496670438,316.80062768724116,-1629.6825999753414,-4976.478708839221,16346.257025287083,1809.3903176864033,1386.9532662451409,285.0481250293582,-1738.3360471453836,-4887.015081506687,16343.448174062049,1854.1212447534754,1372.5685939850289,311.5268845760768,-1512.4327181718259,-5050.97323496228,16212.621897829124,1817.6815882979292,1371.8616326326355,321.8714600140404,-1543.5858301384746,-5121.8901176851305,16300.010396169428,1818.897394631752,1375.330966323566,289.221126612495,-1688.485720534538,-5032.882207069673,16248.728356477,1823.956302098249,1386.4273804318532,311.78532811348845,-1538.1781215935412,-4939.246344281531,16203.133768979249,1812.646903578334,1384.7234130850602,319.2545801619236,-1756.5008642646642,-5205.708852754805,16272.705961016602,1809.6330458132174,1363.8954819801982,322.07445355653334,-1493.3449805911705,-5030.917529167823,16284.899836185612,1815.8252525399196,1393.5727074669373,308.21209306436936,-1459.8327177360893,-5187.294328250515,16098.9188352025,1833.4299459966587,1382.5339645316958,292.89870034191614
-1636.0,-5076.0,16264.0,1650.0,1306.0,329.0,-1900.6931371744272,-5005.7237168776255,16264.121752839628,1647.525273073534,1305.9628888028108,332.57790899656874,-1676.2471017724683,-5068.05819826712,16237.655469863783,1660.232313042034,1315.3215185391925,330.0373000879353,-1655.6154149279741,-5337.352264886328,16245.95057128434,1638.0278324721673,1318.630915243942,321.58150208629075,-1532.1684904515012,-5024.453619507679,16255.92872500371,1635.9154119742295,1307.083031415349,329.68747537336736,-1529.0548319384632,-5066.1025684182105,16284.04258275146,1655.0921340590437,1303.70751515582,332.10892724207844,-1669.212785680538,-5286.234115309496,16365.239968136415,1652.445432189123,1302.786799959748,317.33902316404976,-1738.3243909625971,-5011.0702951147805,16186.293254635852,1648.1040502229584,1324.3048075133609,333.78623390882234,-1731.6774646661852,-5086.937980558374,16269.218526934112,1654.821318507804,1331.0930212080834,312.29354585607393,-1574.390390084614,-5172.937909179884,16408.752379394697,1653.02392007187,1303.8916022681965,305.82410561641717,-1740.4486270727807,-5123.751759448854,16364.144175761669,1656.0837393812767,1312.716497518381,338.2805884071945,-1619.1812392126117,-5081.3081286627275,16197.757244577371,1665.7669315640808,1304.3288356832236,334.31039049224717
-1612.0,-5160.0,16140.0,1704.0,1334.0,291.0,-1631.1262580231187,-5160.404337551271,16032.739942225575,1704.917759249045,1330.4359544227282,287.41971302671925,-1607.0236361622908,-5168.047875109127,15924.060045944236,1720.9558644317292,1343.1017056974677,291.858943737713,-1820.3648450268804,-5122.123166422092,16131.201314499964,1685.4630966230252,1341.719871429152,303.3907848604605,-1514.8822113499973,-5153.1519575664015,16374.792175430819,1701.2777331856598,1334.7888390970422,302.3963536790749,-1583.7984113357618,-5067.267640700373,16275.734146114499,1703.8460667102765,1326.969828421658,293.8056456172674,-1661.7989774726034,-5141.463279309123,16273.225481666474,1704.7501692342253,1325.501146741398,289.43224849929686,-1607.3612321916405,-5197.940908393826,16176.06746587562,1691.0925315398677,1333.335849914915,292.611134323875,-1427.0462301432185,-5059.710183573466,16005.965774504655,1706.8008201449388,1336.1126249918514,279.6667136356772,-1500.1033368462033,-5338.933794465372,16174.03472865082,1711.4738235031566,1334.5185806500754,297.84437497943696,-1568.211132863456,-5081.0026820921985,16294.29170781054,1713.4505347988934,1305.2017398134576,284.29023745457545,-1563.226030330126,-5098.080149383432,16150.515348696998,1700.0602764864832,1333.4241178308155,282.10362546004103
-1612.0,-5084.0,16308.0,1877.0,1319.0,286.0,-1680.2204478671065,-5093.836949904981,16235.008210704435,1872.905096672701,1304.969884033316,266.26998830739626,-1482.6736252040394,-4973.588571709757,16165.6086711513,1875.1310515890439,1311.2671678539214,276.54976469133044,-1691.7787222762313,-5189.052148445463,16302.799116482727,1867.0787878259032,1334.46558369209,283.6015923701961,-1478.1219390163074,-5199.703870978866,16271.621202864768,1870.6034300275537,1325.0155384750421,288.3088853823548,-1665.5791125476278,-5090.933522498587,16204.156419765079,1878.9555924893546,1317.6496750856643,289.97177002406505,-1460.7824231094012,-5261.654201348866,16253.910682573649,1861.2548044091684,1304.8198533953494,281.1150542382522,-1472.3864249806736,-5001.722098066763,16293.684224766816,1872.4063351712612,1307.5462353586581,271.06016455266393,-1657.422633263535,-5182.251881941497,16410.12504203927,1882.7793747094026,1325.3708756268932,267.25521860999135,-1833.8058362431973,-5070.595120117294,16195.696483898066,1892.9258175352536,1322.3124194800582,290.914570465533,-1494.7388054194982,-5082.24485094214,16318.138574442411,1887.2130127247383,1323.4883692989613,285.28873927923263,-1608.8162118681064,-5104.718579720065,16434.02080050624,1869.3064269136164,1313.7739302093976,285.6995828359441
-1568.0,-4984.0,16228.0,1624.0,1335.0,277.0,-1493.6419847698367,-4954.429972210565,16183.396746132901,1619.9963463915751,1354.688488220566,260.68272285567093,-1638.5349578664086,-4991.316263756411,16231.570868472632,1627.6704803986759,1343.8969952762052,272.4944125534786,-1454.4156058077435,-4947.368711967796,16197.770976947717,1623.6116659427432,1329.3391462084796,264.40159409918334,-1529.8336375822503,-4914.203851417013,16196.855350156566,1602.797187850536,1339.8719050905543,276.35597057721424,-1689.828934281773,-4922.531811215758,16238.701464646281,1614.4314908877557,1336.3581970412974,275.1943798762243,-1628.7676688974302,-4901.729991678212,16237.603315434853,1637.4679180418307,1318.5991866368886,272.1961345988201,-1604.0508452534662,-5213.900686231002,16272.257069979227,1625.7755619113668,1306.779461586529,279.4984238320095,-1635.7571570342368,-5077.041347420331,16416.983777301226,1635.3807471735095,1340.596010383001,272.10009145784403,-1444.726548267839,-5081.2029437028405,16153.115565661106,1643.2839167397713,1335.073916261543,282.70456636469464,-1426.6390164161307,-4974.5534303084805,16262.284262723599,1627.38846007129,1338.4560165969817,253.04960834547737,-1613.7551569671691,-4821.063591496646,16456.67888038477,1612.7772158234404,1324.4994738131481,273.75867539496994
-1672.0,-5140.0,16240.0,1702.0,1294.0,310.0,-1699.3652867722656,-5082.535056265787,16083.079793240648,1705.6378834988539,1293.8116342874682,312.3065351132666,-1630.3404432304646,-5115.018513403129,16415.774662584085,1712.6984410434966,1284.1471359218203,310.23192892517756,-1628.6300531070904,-5102.751318344117,16262.522712772483,1683.351070730289,1299.090524325016,295.90726565225737,-1412.545439815346,-5234.023086267905,16197.065723999309,1697.7616658818815,1313.2624637506635,285.2151828737649,-1618.0450382355848,-4985.052194770176,16370.483676655576,1711.1008688048332,1301.8023396479916,328.09347166140753,-1905.8097908496159,-5107.597482629892,16132.35608507155,1698.8708151450585,1285.743698066347,303.86846853892644,-1517.7264137280445,-5083.941146217151,16220.817602665222,1699.1589089968818,1320.3975848714615,306.3869182982374,-1602.1021610696691,-5138.18489658759,16436.263128830768,1705.7351716309215,1282.6257477352608,309.2058524136707,-1690.5488697501626,-5083.141070672877,16328.328620731665,1709.3465341239541,1276.9461646048712,305.55126493979895,-1709.009010339281,-5039.28712864614,16435.452693465133,1701.9727143111209,1288.2485572170954,315.65830460152694,-1735.7075290684415,-5062.741981913129,16132.058453590114,1704.6250017656541,1288.509728175163,314.7461660598693
-1668.0,-5060.0,16216.0,1833.0,1324.0,303.0,-1766.7583095985983,-5297.701027724237,16359.347639211948,1828.7409645987861,1323.707585905086,307.76161811338244,-1634.4723819285964,-5117.33854193105,16299.20660166474,1819.3181475350234,1322.5652952379244,299.4853147282377,-1769.6015224009718,-5014.685328962148,16254.499799945252,1845.5820559209717,1332.7009339673866,316.39930639065295,-1644.5075786333634,-5133.654843718988,16211.213565378961,1822.4052317039843,1325.7218513358423,280.7545070747111,-1837.2514200315059,-4944.5037599593425,16193.756354912815,1839.036234679626,1319.4437350331455,320.9134848166041,-1612.8343435388665,-5090.935095767444,16309.065176059861,1837.4276404513466,1328.7688236672257,308.74589718065386,-1517.9090571976815,-4923.267491264113,16167.623072933337,1846.7831720001072,1323.9140157302227,316.61029723125466,-1556.045580059934,-5167.410657293936,16308.072955247253,1824.2526134099078,1318.702191390777,312.79912012071,-1470.0685470085932,-5039.089132070494,16211.593421040372,1832.8632547341406,1336.8437299663528,310.3439979979169,-1591.6693019774955,-5060.848919643099,16222.763864728287,1836.9386888465765,1335.4154994692142,293.62785474284266,-1514.8950947894264,-5004.481391590628,16202.502678040364,1830.8343969889422,1316.186628117303,293.0294088749479
-1696.0,-5108.0,16204.0,1656.0,1316.0,314.0,-1543.212290060795,-5184.978321706206,16167.50530224087,1646.058081092907,1323.8567851684143,320.7077209294666,-1581.6317939177527,-5171.6285246761545,16231.448526744041,1648.5837075356944,1305.203288130179,315.9593866082093,-1688.0753122655897,-5045.423735761186,16222.247237492407,1649.9158486983042,1336.7697561399661,315.7014661744685,-1663.0069944876327,-5221.644800732519,16185.12133112077,1646.4399940064932,1317.7533094867183,308.43507684863795,-1753.3038277418493,-5080.488400634865,16174.233128375923,1662.5513419606373,1319.993097345793,312.3030677985059,-1628.4164790792595,-4997.949169812405,16299.717218646387,1645.9301436281073,1318.7796587291325,313.85483302367436,-1808.959158213809,-5184.333466446548,16139.23420753293,1678.9641150294922,1308.296577443224,310.92224650191974,-1631.2834906815783,-4974.476520620861,16125.497987875022,1645.5133031747137,1326.5595484473172,298.06293352431373,-1721.338165436225,-5068.688411794529,16272.866735395037,1665.4629068706938,1312.3654484446117,326.8490501756153,-1720.7694906928377,-5090.203908141304,16420.09282279408,1644.6573658746258,1295.2443394571906,314.75504334234813,-1649.857103155979,-5045.727692032149,16011.297459333487,1659.9947118389925,1322.2215431093605,311.90697704377345
-1668.0,-5200.0,16136.0,1928.0,1304.0,270.0,-1638.9061977773624,-5203.8756711923015,16024.45221130463,1941.2121245438798,1308.016151267044,273.2635028041388,-1507.0065675368953,-5151.2711828323245,16113.31298995182,1925.2555035593564,1306.3950928293364,291.62225616445716,-1626.6428191458435,-5306.485707896174,16018.182128139297,1915.705278325248,1313.8191980727263,295.46335792892984,-1548.5200103556906,-5172.833836511394,16106.77215114864,1903.979893031185,1309.693307048877,266.15591178563056,-1621.1892668604476,-5162.147387081165,16195.462489880569,1941.6109103031072,1311.6265293964339,267.38682774603666,-1610.5046049210014,-5254.178383097971,16023.043192166688,1917.438106161815,1296.1109896499033,253.9194684807188,-1664.890707126625,-5246.11515326325,16185.536129308455,1921.840002611792,1301.6599259088978,258.458687141379,-1784.665887236689,-5241.129614955652,16125.63732157948,1939.3261387729156,1305.1391571146648,261.15222708709024,-1692.7329749940825,-5114.876462477484,16237.323044514846,1923.1868726692092,1304.2779398301561,268.7641505060777,-1644.1680153765951,-5157.116069205095,16304.949218352423,1916.450600495548,1311.3667330025116,276.4216296106837,-1765.6605057504657,-5395.411021403711,16032.535149000803,1916.8518921363745,1301.680538207692,268.6430193242417
-1724.0,-4972.0,16168.0,1721.0,1377.0,313.0,-1662.4902136435774,-4985.241286920622,16176.674303669706,1742.9378418468427,1399.1314309807628,312.68819296236825,-1816.4208462741205,-5009.693891904895,16058.892402503483,1708.8375609574184,1374.395122347752,318.89640489287575,-1740.4112695726926,-5116.221043971904,15973.100541081674,1732.9057691311386,1379.3261277893093,322.17275530993015,-1681.4582321335524,-4891.6981727463035,16184.87375274155,1718.6783355002153,1375.2780998886399,323.0692188089011,-1941.7314359765567,-5087.914229178898,16038.519296632869,1723.8542163023121,1387.3068623932859,307.2827716236926,-1654.3633829191983,-4970.848158824093,16084.45235383237,1726.5700774100067,1384.1403789332076,321.8721153377341,-1615.0579995755443,-4970.420003117765,16077.882641790302,1711.5327710110269,1376.389462752139,309.75429791935505,-1671.8572960640145,-4971.341502053012,16343.87351445516,1724.0192036075346,1380.9117624671364,305.17837089448915,-1583.7408541366842,-5030.445571729132,15964.362356544552,1723.1461133772298,1359.3267780963338,320.8037273262134,-1988.2650675361062,-4922.824507640558,16054.252704938368,1711.4897790913496,1378.9607262794764,301.3340467560408,-1743.3072996166554,-5145.409858902611,16158.107901739773,1714.2657886333286,1397.6096916003032,317.93477991985355
-1636.0,-5212.0,16116.0,1751.0,1232.0,239.0,-1656.6514339877285,-5133.081087239248,16088.52973471501,1744.835839221233,1232.9921122221822,246.84324895078691,-1745.5696580220858,-5079.025710224742,16090.059348649438,1746.4810268111687,1226.965164128534,221.76246198250442,-1597.6079297127926,-5267.061974653041,16120.299260615724,1745.714641428826,1237.9422301626737,254.68096661581944,-1514.4368114012066,-5333.5930487191745,16209.329672684402,1760.617868644264,1240.078660504555,238.2099722409652,-1599.92996524369,-5183.90211940161,16114.585016503415,1743.0044587352095,1238.9336429647533,246.41722305843817,-1642.41600207092,-5275.823507652839,16005.975073873915,1757.3370298428808,1214.8194308855207,249.10288737150302,-1863.9246109024364,-5298.842353832928,16088.804313350769,1744.2650206115381,1239.3015754159362,255.02478272235362,-1506.5008751696212,-5107.535553442114,16183.711005843257,1760.865460518815,1238.3113471492777,251.42208786015325,-1625.3576516404626,-5305.91220328649,16077.909265624652,1743.1108033868454,1221.309491674221,245.31541691789704,-1651.3519869988395,-5230.8583747614675,16125.29209483885,1757.160341600109,1237.38071936353,234.36400811001621,-1678.8670112046752,-5122.705048850547,16184.719460145565,1753.8717288263915,1225.4053525303011,231.9211974670738
-1656.0,-5160.0,16232.0,1520.0,1264.0,289.0,-1662.6139092852952,-5123.747128383614,16394.41188311103,1501.7200249247933,1264.8348562071226,289.3235703890304,-1761.123391710227,-5151.933220308641,16276.72925994786,1535.774361888583,1280.273727129199,289.8048454881003,-1577.784048521571,-5201.348140831347,16150.074628093473,1530.1744584944113,1272.2686268237615,289.9896975492505,-1800.302299881664,-5105.426074333817,16351.918181337001,1514.5466451573534,1277.5952844817314,283.08232281981293,-1704.3934625576726,-5284.710421627032,16339.364290842092,1500.1296648097752,1250.9839551195666,275.14991276789436,-1795.4294344066152,-5194.934897402866,16329.342336754307,1509.117289729268,1264.3372439287023,305.4794432748416,-1752.5812403114583,-5111.177740674012,16164.295820402556,1529.9076074508382,1268.5290677519768,287.70482714956773,-1725.0026377054417,-5036.136292496277,16140.552976454996,1537.573601563962,1282.5632243515054,312.15906371461654,-1677.534069745596,-5054.934903226523,16300.742943653875,1515.2765624350832,1272.867658324416,292.82343228952493,-1590.3128338727854,-5087.886239214467,16395.566503862763,1513.9743564381786,1263.1051650621498,290.40014826865234,-1745.9892919489544,-5028.05152372701,16492.55448190646,1530.5723594799429,1266.4951891952562,292.8295966317064
-1708.0,-5064.0,16104.0,1962.0,1376.0,264.0,-1731.5732226472596,-4943.693088536233,16176.04343689825,1966.264275681938,1386.1598494982782,260.62034286380674,-1722.7667812731393,-5007.242535940975,16180.454581139515,1952.1144769437942,1370.544405047724,254.18544702793687,-1557.5956801126422,-5107.088511807291,16241.418379083669,1968.8057380187242,1372.32377826945,270.96722084555046,-1665.0221665731945,-5119.494974892885,16135.489606487958,1971.0743235878813,1373.0714507033185,260.619483186707,-1770.4616860963301,-5163.618513779667,16040.309997374163,1961.4944576387504,1363.734645696887,257.1389313504346,-1628.8539228465738,-5197.979146717943,16054.349599090627,1957.6664856832274,1386.5037700713428,255.74162092424763,-1721.3597954722134,-5065.458026554738,15907.564588697165,1977.4539454367932,1361.5775774847018,272.04831589185176,-1658.5618444870236,-5215.725209164476,16019.506100228635,1960.4997303893535,1395.1238757172616,261.37427145684444,-1762.4454983902929,-5119.487323870194,16233.712569614889,1957.961608086228,1382.271136634417,248.77783574543824,-1703.6148244701076,-5186.71719665267,16293.48631915267,1954.9787917391948,1378.7742227116164,255.75573137085078,-1593.0700307511984,-5008.227598816337,16270.425087522777,1945.3158739616665,1378.13370670068,248.49990482814317
-1636.0,-4932.0,16272.0,1680.0,1259.0,243.0,-1709.666967912891,-4882.719666382466,16258.940675260379,1699.0813715080496,1257.900603351025,237.43132741018684,-1769.379264557757,-5065.412955366549,16214.508931456285,1668.251642718842,1243.089237806337,256.94415044481457,-1753.522418896107,-4949.755969557972,16289.620365199957,1693.9311478877505,1256.8804091467157,241.80856342363208,-1707.9135381115116,-4779.117908094978,16176.61340886981,1695.457077913821,1243.3715242378698,230.9200721452035,-1756.5844407146224,-4832.274331961124,16260.290391640472,1694.4874708447144,1246.3473945020462,249.26151412338646,-1610.86448470763,-5134.272085148076,16197.610247645558,1664.6698281678832,1268.0270092386502,235.34686124090007,-1682.783015336559,-4922.063489454496,16099.243798433416,1673.0198213435976,1260.565492336232,253.84439723820347,-1791.3579233779108,-4923.441707633042,16097.542042268044,1693.4565879817135,1272.0189365666274,252.34320625851922,-1638.801688613942,-4915.421551072576,16341.130697440762,1684.9231762722106,1254.707276798164,235.52461190538173,-1566.4082240458495,-4922.1111622053,16367.77038753264,1676.7934477590281,1245.5611153381578,242.07528579758213,-1533.8287407219768,-5084.5599141343155,16387.613675284203,1690.4759909205686,1270.902311880946,268.74181446038097
-1676.0,-5248.0,16172.0,1486.0,1270.0,321.0,-1850.5237868023246,-5180.564008800661,16072.79627788526,1494.4251116543526,1274.474024467721,323.7950295016846,-1537.8663927857906,-5271.051357030339,16300.686629169739,1491.2838636803144,1270.0685490505277,309.1080472455824,-1555.956963566632,-5176.105277518109,16197.994723468075,1488.9398472844414,1267.4861044950362,312.5708847817056,-1651.9828433769062,-5382.35934904038,16188.744768295726,1462.067069045543,1268.9252435688672,319.6091573924855,-1624.4077801281699,-5140.135608183075,16072.775512060967,1483.5229966052113,1259.3093361175536,307.26277904061556,-1626.9552757424688,-5239.653585833442,16406.315459540037,1494.0599585798334,1281.6631209288134,319.1172219160503,-1886.3765827461102,-5207.4440674442885,16034.896629212612,1469.540870746418,1278.4641706144162,327.4479041953052,-1591.6545714691765,-5234.167304408353,16229.829523795266,1483.7243650905273,1278.6898335547587,322.3028867924229,-1543.3401844479572,-5384.361814377723,16178.358620403933,1485.4028562836634,1268.104614683672,333.3447412499405,-1678.8109697728871,-5257.012731639525,16045.08966277449,1481.0932925333457,1276.9694945156618,314.78008464926864,-1520.2558458298467,-5330.70055461108,16303.804913632071,1493.9513952259754,1280.6410329697849,322.27037151110653
-1628.0,-5144.0,16192.0,1991.0,1364.0,262.0,-1526.6354126879678,-5286.546146480896,16449.844734895934,1981.3473034076437,1364.512745676661,266.24974055713267,-1676.1903452503343,-5113.59830888294,16150.691728854357,1977.9853854774003,1349.106882068105,261.79844993247804,-1631.0661157784966,-5157.844817118384,16028.962736649042,2010.7587536748565,1343.013927846483,253.401054675132,-1646.0672550103243,-5113.449547906776,16181.997252670659,2001.5529216819946,1371.3434370049924,255.44747592331737,-1629.4177640605012,-5093.8066245585005,16366.985215799341,1975.6121869486135,1364.4712953666433,260.983226998232,-1737.1521361147613,-5101.607852566328,16143.893659209556,2000.2786919583066,1338.1994511982546,246.1497410360872,-1486.1459759114146,-5261.0421649116915,16087.345157093738,1988.814505001745,1364.9907199991242,272.0949464131349,-1693.2205403342666,-5223.851379850739,16213.798294407987,2015.6951120683073,1376.34795055899,255.64791940696006,-1619.004827201199,-4988.18634179512,16207.164078362122,1993.8489234996978,1357.6006367160187,258.1859786106141,-1435.5842885212546,-5204.490253306621,16306.687171227846,1994.4884487362654,1346.4373868174837,252.20201983735654,-1682.6749858036756,-5065.902431684951,16198.87298524046,1983.1793968351676,1368.4232755714118,272.2967786451484
-1676.0,-4948.0,16240.0,1714.0,1364.0,274.0,-1600.2419950707933,-4988.424474681708,16242.192470362106,1734.043512287412,1373.3810230396746,268.3065316020905,-1770.3040190183428,-5047.911826740874,16270.449460688096,1706.497436727386,1373.4953659044918,264.61983996683387,-1778.4692621508827,-4961.631457225262,16250.13146630101,1724.5288379278998,1376.139886121697,283.272314679133,-1662.8248862380842,-4882.571189334221,16117.621287137245,1720.4798238043613,1365.237005110571,287.01774572384846,-1912.806361814132,-4846.104463374659,16350.596840756421,1708.9000466997709,1366.0584736947026,274.7166712242359,-1520.1957289456877,-4951.920401597663,16319.93265884193,1710.0809973275582,1365.3209892542895,285.52162070712893,-1639.0479462371216,-4903.812609396013,16225.681445385031,1728.1059928288944,1364.0863127311306,269.8809878702679,-1669.2906145993038,-4974.865870152821,16225.051457202544,1713.3129596675794,1377.675332968183,278.518822566393,-1893.9575631682808,-5140.100199462194,16406.49681805918,1727.3581888143724,1359.8884790078855,276.1446568870815,-1572.274852486805,-4841.667096722958,16126.433398474355,1694.8847338262426,1363.9334993522261,259.0953557767645,-1871.7997515298366,-5036.437258571355,16195.353667689482,1718.9738481546544,1361.0011645660504,265.81693115609363
-1672.0,-5240.0,16100.0,1446.0,1284.0,370.0,-1768.8098517172461,-5056.427704188234,16194.365625419317,1458.4854448737185,1291.7828764254048,378.01355079799106,-1642.1597635701594,-5415.680155065715,16130.908677048705,1430.4673887318106,1290.06388364659,349.61247238174724,-1687.9852471482197,-5115.829909920506,15953.763930531637,1449.0577468597742,1286.8520977026358,359.5896373911242,-1829.4501458421105,-5336.321472030223,16052.220668279748,1452.1680946546633,1269.2000495881832,364.5829416694619,-1639.6335374017103,-5187.284114290601,16195.363602556392,1462.2636686209864,1290.5253976668323,358.67136786513873,-1418.8435048537044,-5210.115353912473,16193.355742078775,1433.8552823264738,1267.7723802362477,364.0140048953376,-1723.9061011660542,-5103.027417516678,16119.54906965472,1437.272791844252,1286.0505326571842,374.520997907506,-1744.0338554724651,-5178.923494105249,16112.782483027462,1435.003686084775,1278.5678039169384,386.7213677585057,-1637.0997209239663,-5142.215334381577,16141.80350455275,1452.9600461122054,1270.0609572776475,375.77686411322225,-1700.5225839969794,-5189.081569929993,16321.341943802086,1445.7837615712403,1287.2695432568523,371.70071820281635,-1773.7488227177337,-5127.597996849326,16182.64258546366,1426.2122897506986,1282.649493219162,373.8389734343032
-1676.0,-5084.0,16260.0,2074.0,1307.0,223.0,-1904.2001106492364,-5124.3484545522415,16223.514107025268,2077.601391758042,1308.6557722077441,217.48685083594896,-1781.359321703464,-5003.12201266051,16355.36785225564,2071.7289404326357,1299.7662473489006,231.6464948567576,-1727.3888765349402,-5253.5495381513,16230.421769662556,2074.7639284272295,1295.7111009918412,238.57365627037092,-1709.64141264627,-5035.510462797868,16327.363842771752,2076.282374266976,1318.2651138210897,217.32225270502357,-1770.8172805041922,-5070.560066551464,16124.827189885575,2084.4666035372584,1304.260320311252,233.9433074000809,-1575.4699393261014,-5136.927817813007,16308.219224663211,2079.9080287130996,1299.2535994363334,229.47756531639408,-1531.2663721929985,-5030.615856587145,16334.864975515136,2075.7460248301977,1311.9119239140564,223.24950576679507,-1729.743105943988,-5181.636362759598,16121.62204904414,2090.234628602717,1304.4429002174531,234.73820650777034,-1589.2659987747181,-5051.102295946465,16116.934630662558,2083.115290493624,1305.6276733345044,238.0909899488215,-1651.0516636667737,-5128.293238966993,16400.402303233026,2074.207420733481,1308.221350640155,230.4007773640046,-1758.5206211255256,-5126.140246991626,16413.8790718006,2068.5327941634755,1306.3779505589282,220.3179108299103
-1636.0,-5040.0,16076.0,1524.0,1354.0,302.0,-1584.1163331308433,-4943.015765767942,16010.589432557921,1520.5373724882268,1351.7935061396774,307.97806342506306,-1632.2841329856956,-4990.3867020993075,16268.27102278226,1513.2638819612907,1328.2482974261054,290.1668463417413,-1500.0827513474778,-4936.4320527913305,16062.60302488308,1517.6879500366647,1355.1808542781566,310.09907471239944,-1611.1289363655458,-4987.301154267991,16168.508101435229,1534.101651109132,1347.8704192700602,290.5427398872435,-1499.6282755035354,-4969.259987881848,16296.877702598113,1517.2879818035374,1342.698485730044,288.6935130613003,-1597.0553032601865,-4912.813049000955,15989.817772234019,1526.2016825970982,1355.7334479470753,305.9292514234288,-1513.2796667151179,-4962.849291696508,16011.761007926852,1505.16272570087,1368.1769403526328,316.61410120252646,-1622.420240364811,-5009.40602393553,16095.480741819705,1508.7225289278101,1356.908676120275,298.7639273262765,-1738.3342449263446,-4978.1792660671945,16126.22232134559,1517.233645194514,1347.595435259322,310.23051864294166,-1450.0834125314755,-4998.625817109446,16002.773522400965,1510.6062990566038,1355.801689751452,293.8251615175485,-1585.513137996995,-5043.73057987049,16058.688887057715,1529.1926903064775,1350.5044069001565,302.25108107965997
-1656.0,-5152.0,16224.0,1729.0,1300.0,285.0,-1661.5491483209394,-5210.897774023498,16256.059519968101,1736.4895076429746,1317.0777502085205,277.71507454859557,-1680.2957296504958,-5060.881477816051,16295.114750979426,1728.7968322907684,1311.8638797815477,298.34782943627016,-1504.3222369184878,-5343.71846494306,16277.948043175658,1734.7893042695277,1299.0934067394046,268.36383852281386,-1661.4026424426966,-5089.631377256064,16213.809795148745,1734.8376008171558,1312.7455634936075,280.49734104159813,-1486.7730896759197,-5154.149042551862,16353.33089587078,1748.9300804474606,1292.5465545286042,285.4155542991,-1560.868821186106,-5195.193495413851,16468.84135828649,1718.5428988381132,1308.4662886534609,273.76375967776477,-1485.5403743791337,-5151.495195079029,16114.411182341599,1723.607487221561,1301.692320061073,288.5103732813501,-1670.3032442682304,-5062.615442747108,16253.642223893443,1737.0835156855794,1301.522223283436,287.51136039241686,-1950.0450152030596,-5266.233652830566,16175.653351882156,1726.369634449229,1330.1052605160444,276.98538350865783,-1637.3113987443285,-5105.833299250445,16351.705399235256,1731.6823687474462,1312.4810559733046,262.4650720221027,-1696.5132245536033,-5287.191125905004,16130.541050698108,1717.034935580945,1315.4184064393037,278.7612095444091
-1740.0,-5048.0,16120.0,1997.0,1322.0,247.0,-1857.709977046529,-4996.216559444847,16322.775366808242,1992.9323053975386,1339.407801709281,252.42499855032304,-1781.0843874349216,-4949.283293276269,16080.979971762452,2003.9473056405518,1307.495590090736,240.68387778177222,-1809.266585608081,-5046.394758806113,16058.428281129804,2006.9726778799284,1329.032863942504,236.525853108616,-1632.274205540389,-5147.984219212678,16178.26576251897,1983.1124127052356,1324.0410536894638,244.56902603158585,-1682.00371471082,-5099.4169170944415,15947.77635959089,1990.961456353822,1317.611876891525,242.2561304584552,-1661.588523870093,-4867.130910392562,16147.871587819098,1980.6308477511054,1339.4249532130018,237.00792690260778,-1594.7697152095543,-5065.335472219529,15962.976003948068,1987.1522752310557,1339.7027350081148,231.79409836602034,-1799.5135337564384,-4878.420405627469,16360.50020414343,1983.811824666826,1315.3867847590634,255.13885895776542,-1627.3970361957086,-4936.709443134359,15969.368571297347,2008.077665030332,1323.1116727663982,243.66164287024156,-1729.2363068449129,-5030.746106104055,16239.3812133722,1987.4436804653249,1328.9277941996115,238.20790598611828,-1710.6594186730863,-4993.309940685698,16323.728123913379,2015.4673088604566,1320.9584540494668,246.99945388320305
-1668.0,-5084.0,16228.0,1536.0,1267.0,301.0,-1636.9449532415322,-5174.267244739688,16267.972986853289,1537.169084608585,1260.5403009383717,305.71755038970065,-1776.6767752711282,-5004.425927013704,16334.82542982459,1533.0781243602103,1270.915152720282,293.7363373999026,-1699.1742349640372,-4971.072394885538,16206.548609166695,1550.2086689359703,1262.9692524198558,290.8960101987131,-1693.150462279165,-5018.042427163998,16202.110852276537,1531.7451403767002,1262.9621516033314,308.18495758711543,-1491.1983114689929,-4994.721376526895,16207.418610790497,1525.075228001618,1280.515698006789,299.650189866886,-1613.7494267718525,-5133.755016701495,16127.180173999897,1546.8742920595885,1260.0891477908808,299.40290619928277,-1582.9640207544337,-5029.768029045831,16169.78361551391,1535.3713818420017,1270.4405386386602,295.34004302912723,-1761.0960600258863,-5147.011665430035,16102.196245030338,1557.7384967176529,1270.2836688497903,310.5368717173422,-1855.8551760452003,-5211.200420783966,16115.747103602387,1538.373346185248,1281.200156939678,281.86354610897104,-1637.826333074117,-5097.527595880176,16155.824917691709,1527.6981310833557,1282.748852168133,283.8830875950213,-1589.1553430394003,-4965.957985167911,16207.834507623189,1555.9846418022753,1262.3528405355928,302.5474778166794
-1644.0,-5152.0,16224.0,1818.0,1315.0,231.0,-1697.2048706973453,-5367.655532561252,16258.540998541293,1823.7550110388695,1313.1859945808103,238.48434334986257,-1585.802837683941,-5112.498671893837,16413.22933516149,1806.6981976012116,1315.307132442312,222.44136516831955,-1491.08654563069,-5236.790370415811,16245.069985635797,1804.3692879227194,1324.3677433454457,228.89365192306693,-1609.5334932148817,-5175.260484670091,16268.493450598313,1815.596443724297,1312.5733663235549,228.48241180467585,-1520.8835512866315,-5074.814022045463,16160.62665083074,1828.9023753955787,1320.362621209091,217.48856857530393,-1722.8105032344208,-5100.547991289349,16359.864371802652,1820.4836714505561,1301.2463130140757,234.1894556180578,-1521.633748210621,-5073.072538098396,16209.042497519404,1815.5730473221245,1309.1463515182675,233.05397293294803,-1637.9614008756648,-5064.080631512906,16193.07636915593,1816.6115502513821,1327.9232874316135,236.33757061779684,-1812.2676151627302,-5044.064112623476,16231.347890240299,1817.6199790004143,1319.0046522393684,233.78059710443557,-1631.6949541066394,-5178.421925789825,16195.820643440753,1800.4955892659104,1305.1717683537597,227.8979600378506,-1741.7521362928483,-5353.057510859695,16129.545235877014,1819.545242204361,1327.5689740988378,251.8295535166764
-1584.0,-5064.0,16180.0,1833.0,1293.0,221.0,-1420.5073790892186,-5055.837362589866,16170.737978660396,1815.482782171761,1298.8634573488332,222.26923048865925,-1526.5930852771246,-5109.462997033085,16232.48713390109,1812.6111131800787,1284.5028267975326,223.29967515919728,-1707.0797836662193,-5003.604806707005,16217.975468168894,1835.6722762594597,1278.45003928138,222.342239877381,-1581.599197160087,-4907.340053991914,15952.470117147255,1847.5848845437897,1292.176247728608,225.46862579173097,-1408.3487902700217,-4953.809814290411,15959.86206118402,1822.1200111349951,1283.1818891813202,231.38297413580074,-1538.9701578374825,-5209.701495449284,16004.999034795994,1836.7203075205277,1288.7740872612585,210.9038426477805,-1593.2906839103064,-5191.9459346354515,16206.25611908705,1845.1702867945157,1280.038990167391,218.95009402586211,-1552.022911620272,-4953.478417822313,16272.63895561909,1817.4134878325021,1284.3221927119655,213.8901246672848,-1762.2555675055319,-4907.573010989524,16300.747175408538,1831.3077018094796,1282.5394772975792,238.55294288061924,-1582.4626797944586,-5175.574427330512,16106.835628913217,1828.6871645444194,1290.7493970253324,217.35933928912462,-1518.9163308453558,-4946.674813806638,16277.314014651138,1854.2401518722993,1305.8808403441549,225.11824432433656
-1620.0,-5060.0,16064.0,1675.0,1401.0,263.0,-1545.4489621031526,-5089.632419666619,16072.067157327512,1667.5832920175083,1393.349647068238,270.0921088596436,-1744.7539674918564,-5221.868268083604,15898.613005949543,1684.314768460801,1424.0270674308053,277.1413296830952,-1623.0015206016112,-5164.190529737068,16059.0243187653,1689.4606882416533,1423.024742513992,256.1475507870595,-1445.9990724449963,-4853.972980722988,15981.644682591868,1673.5439036482119,1396.6380626646646,263.2935583645718,-1580.0298683584804,-5167.903941326991,16052.441574142182,1676.2355063369982,1395.4172991264563,270.77093612906447,-1505.4473227981996,-5122.096994401449,16077.091575880426,1672.5307818779488,1389.2440799082926,271.75091292179616,-1650.9214651532457,-5057.349543162938,16094.164623197375,1681.6855086882567,1397.686384289018,267.378678101689,-1533.831116336495,-5124.36087101213,16162.46241928307,1681.036234409772,1393.3169512120512,261.93023824273735,-1778.5232600247919,-5072.423999978637,16009.9832395225,1667.235221481569,1415.4539179871176,263.7598179008562,-1505.0377466090401,-5077.992311649046,15907.266800091646,1665.431993631159,1399.1836463093628,273.56854565475356,-1577.923923054191,-5062.434434325488,15940.350781307794,1667.8469349091015,1392.3505888265938,231.91569350697986
-1660.0,-5140.0,16104.0,1629.0,1335.0,226.0,-1658.6346621576479,-5068.190354059456,16072.583140200575,1624.9597427514232,1324.8679406098036,202.64258568145942,-1742.7026163690757,-5219.836881026785,16052.847445637586,1641.6952272054245,1325.9068389540832,225.8691999440684,-1599.8961067498674,-5159.784332013753,16086.34922827366,1638.8850157042407,1335.8633414080116,218.71132857412329,-1624.952438288791,-4997.152486346995,15941.828693803656,1636.9917717181966,1335.7029325882281,234.0814850969321,-1739.4671577301897,-5052.572308916797,16034.667545840728,1631.3776267719509,1328.281307673953,217.3865046941119,-1582.204994376559,-5239.341516307017,16154.414200683363,1625.008855492027,1349.092995867448,223.3685885859586,-1621.773447442446,-5219.464305212285,15982.567446277611,1624.033799982363,1321.8718612869075,213.45729588500043,-1721.5934773638994,-5150.1081022234475,16041.196603492577,1627.0717130256464,1335.006508833652,220.63595761299663,-1677.765250278908,-5165.639089072981,15961.21364947505,1629.1811891423463,1349.3435050743353,225.78221469431486,-1711.7858546963173,-5131.27830263503,15975.421967582222,1628.8323536214996,1337.1214875921182,238.50589967373386,-1509.9880602492494,-5183.44199183656,16156.340658280198,1652.9829340560177,1341.601159958926,218.24462936439366
-1736.0,-5032.0,16192.0,1906.0,1317.0,268.0,-1691.1609808997785,-5007.315907507557,16102.773984006977,1893.552999906348,1323.2031890766514,259.9943520598816,-1625.327459448947,-5087.8912348668955,16242.189513576317,1906.4450479324055,1310.3210055250124,277.85390239531984,-1685.4473643061576,-5120.796557667167,16262.978993861587,1885.9015694465636,1311.9346950881509,268.4959305896781,-1729.7552127803417,-5075.635866182559,16236.454059941343,1912.9596961335137,1330.7099210591189,283.51730196294125,-1649.2562999400704,-4883.971371952419,16337.829137141884,1899.9878747079435,1318.708610613403,270.70222916014546,-1756.8563995383383,-4986.26589320854,16239.025899627311,1911.5906519813482,1304.7232678081193,258.4322068193638,-1550.7049031300269,-5041.404601772099,16047.94064707164,1907.7017907125135,1332.165366389899,281.74332505058726,-1650.8244903840864,-5168.401861115614,16132.300379889608,1926.3634481001927,1339.7763308113824,271.0586936784739,-1758.2142165069754,-5130.460160633971,16154.414137167809,1915.547670368615,1303.600607450377,278.61240364198653,-1547.1613809839173,-4973.766583507979,16227.88048240563,1882.1766985184343,1307.021878737185,269.7551074696357,-1572.3754411446296,-5048.221046841838,16140.574675107504,1919.9344116179627,1319.1209127656175,240.47848039716595
-1668.0,-5144.0,16224.0,1627.0,1314.0,295.0,-1703.5512406189553,-5059.393639538801,16055.245959008806,1630.215584039155,1322.778380402319,275.38711621832067,-1650.9791787195493,-5164.691481428925,16191.836242399639,1631.3700709412872,1303.395151072586,292.7011338561565,-1686.7330798224098,-5143.432072159003,16231.941651835701,1632.2762594794272,1322.4598620156053,299.1651666272486,-1795.9706560150662,-5036.389806516621,16240.758044211829,1635.5807868202246,1303.7644050983927,286.2348257401527,-1682.9122913723859,-5084.55403153148,16200.311296244123,1632.592796325544,1333.838043354608,288.9671707366454,-1588.135339764572,-5194.200095772338,16087.77508559406,1603.9618754046517,1317.4369263000708,284.9518303437981,-1688.732689803658,-5124.6575915557805,16226.331256145804,1620.9165831314147,1300.0234526663132,307.28443458156227,-1838.5460503672086,-5167.76775966034,16284.87354760693,1630.695596369558,1306.4064604738787,301.09053059216166,-1859.5689420019653,-5000.081937619188,16199.686330953746,1641.3000694180619,1295.2688842104435,297.9107704768268,-1848.9825158825495,-5146.754195635314,16188.357987434576,1626.9917819325865,1321.9819244489292,290.9653161968449,-1670.7464833203974,-5185.742385785713,16408.03389620524,1617.7987212292894,1328.1075923791902,286.21701390292236
-1580.0,-5228.0,16208.0,1734.0,1423.0,272.0,-1647.0340058188801,-5060.5810874521485,16316.359444594224,1742.5815638835938,1427.4236813089703,291.3466345419419,-1697.0722871657292,-5131.436426880542,16078.834413902963,1747.9004894790712,1431.1754144320507,276.3170391391963,-1494.691102852118,-5425.714036235459,16241.367292023695,1738.5711635125394,1424.486815838371,269.876837278408,-1621.8083234077371,-5378.980734511272,16089.697635440907,1717.2590868932498,1435.1418657688944,270.2021957810892,-1690.3989432781807,-5524.982821679968,16173.238657981117,1743.3906901208406,1423.247362068044,285.89558987351825,-1523.1645371782092,-5333.550687654879,16160.112304256252,1725.0099434700924,1434.795533971771,285.047057657424,-1592.0612322909574,-5261.391759608195,16299.693559296518,1741.7163297143577,1430.6318222666578,265.3667006416834,-1576.67140975837,-5251.042436019405,16218.014981189328,1742.4289683793395,1411.5656311077764,276.77910966027474,-1555.7290056812433,-5175.936550028792,16025.52290349506,1740.4535134664345,1446.7251899921011,292.2790938647603,-1640.813285252368,-5153.983938929072,16253.13426774344,1715.0084940859667,1432.0510605754919,277.7613984935273,-1689.9789487013898,-5293.122461653421,16213.510233905632,1728.51635376052,1437.3744034712495,273.02565602475624
-1676.0,-5008.0,16196.0,1769.0,1346.0,256.0,-1836.2483079291114,-5105.866147630628,16179.695820253935,1763.9490762905036,1333.8909687627342,239.93340666975163,-1492.188484315544,-5043.526675972881,16118.58690830434,1774.281177745175,1343.3881776801877,245.13764849076003,-1695.0104119003986,-5288.209241235489,16153.181866660645,1782.3381122458304,1323.7386195921376,244.96047713847597,-1727.0596658415463,-5154.17922810663,16307.872923830411,1772.1696004684898,1333.5601709002217,250.7834376241186,-1552.9664876966604,-5073.102093282512,16232.83869930793,1779.8713422503358,1346.5123312552926,250.42633907093608,-1696.644637714653,-5239.021716959455,16211.331944451164,1766.551455399563,1348.3285457462348,263.42024504858705,-1683.9472561722184,-5024.342554728094,16227.218480659381,1783.5511630229162,1363.3444289736356,259.03293930283814,-1481.7644041822941,-4932.665011447491,16154.026338957074,1776.2958591208387,1383.2784983007502,263.310689398549,-1748.4595950993175,-5074.391694100317,16084.508389284145,1767.711137059152,1353.574826459293,245.8448683166679,-1666.4492597246976,-4873.829009469659,16275.980352689337,1756.6264253206848,1340.6464185182283,249.06549156127622,-1778.0730826157214,-4949.652289277781,16090.993128166749,1771.964357791593,1355.8664045066644,259.4157751202034
-1668.0,-5040.0,16224.0,1661.0,1332.0,307.0,-1641.0579051551626,-4987.396921039759,16357.896443091247,1666.3978711672305,1327.7662610665132,307.30874143089017,-1664.7994752143293,-5112.625572437071,16405.936644660287,1656.9863651919372,1320.487964496835,312.09207973244156,-1758.3902844560614,-5080.259249731652,16217.81093531661,1655.7282425115682,1318.974209853548,304.09927170242094,-1845.934847919659,-5060.822049964259,16083.921038294297,1649.2135479616272,1326.6992538059894,300.6713203129411,-1761.5387813223056,-4929.531805758317,16175.552011543361,1664.9445439526835,1350.7221963087425,317.61703899015714,-1714.3762989219254,-5053.800680235798,16170.897682426383,1674.6746828706557,1333.5558330382526,311.13459226515,-1628.0689205017038,-5000.951797432444,16276.415284510489,1673.3534768611846,1354.623749546199,302.2434036871004,-1637.5579158595506,-4807.211470643477,16064.77954684889,1659.6408624857447,1331.75381607887,304.01792809751976,-1656.4266965131364,-4969.512414452882,16254.509298993002,1662.3625265840533,1336.229741497041,305.7493167006481,-1551.5951722792106,-5038.092353870104,16354.907716140135,1657.256545101139,1332.0904594025892,309.14786187471174,-1833.9525602306312,-5050.005068483406,16302.3543932573,1672.710537595355,1321.0291248147444,302.1473949698424
-1644.0,-5128.0,16212.0,1750.0,1313.0,281.0,-1669.6752625364281,-5130.0708589254455,16433.477613186944,1759.9113763263497,1318.355830846827,278.52238957827996,-1635.0877460764327,-5170.308792092804,16164.522387372688,1749.887244118516,1308.663366368024,264.71128270301,-1604.9190993959699,-5188.333326558263,16190.685588180722,1748.2167463709416,1302.6417215092786,272.47340534739527,-1748.0985130741299,-5173.720229068384,16184.178387967799,1757.0397273363208,1306.6426151010721,266.21918551353315,-1788.1308320709998,-5112.631042356409,16241.076521186944,1756.2359937079705,1316.4756475840743,284.1304403601399,-1581.4540503766495,-5289.926402254991,16110.637587814272,1750.0080843513044,1319.3709357091436,284.18590580699885,-1808.0088246607925,-5001.890455613695,16227.407684669146,1762.7002866872997,1312.3357936310986,280.2537806054762,-1598.5150410112653,-5151.489969818788,16288.413080767574,1744.0561022098684,1301.9595946082804,269.06440493023405,-1628.0399835977514,-5169.32915084978,16295.420675255427,1750.5956595281355,1308.6461395692195,276.8054800733827,-1577.2218745900484,-5153.001731744132,16217.776804455802,1736.5566777724391,1313.009462053022,279.02475313943233,-1674.816496008298,-5336.468732241365,16129.743700521274,1751.6264540765264,1296.791963912681,283.75110693852497
-1612.0,-5052.0,16252.0,1723.0,1291.0,323.0,-1656.2685484133422,-5149.357657340239,16212.652169185461,1720.757612747826,1298.4279265707194,316.19046653378376,-1539.8842166038876,-5028.45888794053,16253.177137970386,1721.5876872308042,1284.4938053639173,339.19271167469844,-1657.8575231078582,-5083.948572438769,16231.814389575151,1705.026121654942,1292.971137130139,323.52968362436485,-1680.601212444071,-5043.745128478316,16224.486624229956,1732.5778269900497,1305.071050496177,332.1984625027532,-1449.8558130042397,-5074.4512420201945,16288.517017840084,1723.3847079173902,1297.0740059087548,320.6311573061585,-1695.5904910498389,-4994.025497883912,16227.73805929245,1721.3388615101214,1288.6729651224189,325.9552476192231,-1517.4561056615244,-5055.106832912786,16353.586716746222,1739.092494066465,1292.0749727775074,331.57838750172516,-1608.9087897148952,-4827.896049471762,16178.31566095928,1706.8568795608778,1302.740752443933,324.47458945658536,-1638.204994886728,-5022.540651025951,16128.932753799734,1714.5476426039638,1283.6016582208292,320.28245819925684,-1500.6596803016628,-5282.473166459521,16159.168332512701,1729.9313831222757,1305.0005177896908,326.41549372983644,-1753.3497140280024,-5156.745927026342,16223.101519503589,1726.4143481110793,1281.6704655223339,317.44739069751034
-1552.0,-5140.0,16108.0,1688.0,1274.0,301.0,-1544.8051151063141,-5137.538647574051,15975.563572715762,1702.0134388917206,1262.2087207747331,304.00588640104263,-1592.9061716043188,-5172.1295355833345,16189.247171552743,1678.6053136948299,1257.8040290226706,313.5601429132397,-1603.939788681586,-5231.484734667201,15999.95515023874,1689.5546423481217,1259.879354808082,297.3829933871313,-1584.5197836817765,-5136.6790016786035,16151.344501255617,1692.8407420257513,1265.9106562666575,314.31324401604076,-1519.4207632693679,-5168.744847146075,16075.68858324278,1690.8310001899329,1267.720715396636,296.81194422464864,-1675.5928145212329,-5143.997114286398,16267.97360038713,1697.1820881237488,1272.6514626808978,290.27432397949786,-1447.413433157629,-5093.773149455652,16075.874034675762,1692.7269224949541,1266.9019293006172,293.400078168394,-1511.506347529125,-5230.732227903341,16099.809996070513,1708.302024277236,1281.255388667015,309.7923371029965,-1584.0686031846137,-4947.922128958511,15973.476003053718,1705.5038683946043,1269.02482213173,288.0645005330594,-1630.9514727759195,-5223.902783490617,16249.457535127742,1696.4241917509548,1282.00225877476,295.2629692507078,-1560.379853732349,-5141.029902542891,16217.089612451671,1687.0350685571707,1267.836700872156,308.08704972834505
-1584.0,-5224.0,16148.0,1796.0,1238.0,260.0,-1623.0592859603994,-5355.095777216589,16121.614917520355,1789.8556373287822,1245.7961963776963,265.0566645574572,-1553.4080380521207,-5135.617072662832,16017.405621451318,1801.6683354510212,1222.7664378400464,272.3726070054441,-1603.5930644136947,-5222.800072202263,16197.294639088745,1803.0649477239197,1236.567499582137,252.26743939530468,-1533.3125923277985,-5220.893014815426,16040.060460180657,1800.1180856824856,1245.4658963406957,261.6975495362302,-1653.3979127941068,-5155.637634292716,16063.35352221085,1806.5324565831195,1230.0170091487016,274.90072719893357,-1671.523752909059,-5395.669740525692,16165.908713998964,1814.8889028382105,1227.9067574624924,250.4909866505083,-1606.914208374424,-5153.543130644369,16111.993367758034,1802.4118816528962,1233.1560909694501,265.9704963209827,-1538.4271153957075,-5218.016625661676,16313.048415472756,1779.8230263482424,1235.3524050537285,262.6054959711411,-1462.0035499387325,-5351.886511219681,16051.24870427424,1814.850704390292,1233.320642224592,253.18699583548545,-1617.5421764001026,-5149.0552475211725,15999.495014071419,1801.854325709371,1269.355328344638,251.11628149984412,-1613.4205157207414,-5217.943921006675,16235.637415259334,1808.7309660206674,1234.029855000406,257.18005213110257
-1620.0,-5076.0,16156.0,1680.0,1315.0,268.0,-1831.7657067363673,-5058.784947601121,16052.875453611252,1673.2782157414701,1306.1322899563434,264.7393042647925,-1599.4004873429228,-5179.087116328189,16127.299505927858,1675.8082525804898,1323.127869695855,265.2175153376385,-1763.6908967454428,-5067.138300327725,16231.26610321054,1678.0641430183896,1324.4805100618778,262.5463604710248,-1539.4733475239996,-4915.723852693464,16045.809484570482,1665.9105933758315,1332.3304733759237,281.1326141401204,-1686.9545289917135,-5134.095440025935,16162.689123187478,1666.516496773064,1323.304675220287,279.7774462518609,-1579.7506887435932,-5139.965783113101,16171.36465720352,1679.0036485972416,1308.181238395362,271.97301201628323,-1566.403483714204,-4965.310148624247,16110.933988968614,1677.0391993654584,1316.1662430965455,250.96466399524783,-1699.0039586663927,-5041.503627323126,16147.540519857477,1682.6141872459332,1313.1673613014111,281.20401444968707,-1612.4485910215317,-5117.323243117617,16146.434448372735,1674.464811253398,1322.46438258403,255.76469122226487,-1788.189160009165,-5015.078595264375,16246.061668756976,1674.1640744872361,1317.4343532743653,266.6255287231661,-1656.2601047600615,-5155.175503139458,16279.850468557483,1696.1351140502645,1325.3003514296754,254.19694686855925
-1648.0,-5024.0,16208.0,1792.0,1376.0,276.0,-1603.1931430613986,-5079.442124903792,16111.81340224142,1791.9984099007816,1370.6776268854899,270.3329434710917,-1620.1429021083964,-5027.753665093299,16078.465109057917,1795.157683158002,1375.8295105929817,292.6005617561568,-1536.3245007539115,-4993.5426850843505,16086.024103168833,1783.4318402939787,1378.535633582039,249.3663929704167,-1750.652812369025,-5055.359707259005,16214.200295953522,1793.113405613947,1378.266061585117,284.95648430736367,-1771.693572672431,-4847.974788481995,16353.174106030037,1766.8050450148562,1366.2219641624097,265.4226997776165,-1657.1079807887236,-5076.927857696244,16207.015382850152,1787.613832322902,1379.4577996719295,292.206281813269,-1679.6951033693135,-4945.478874282649,16156.800711591535,1805.2647389444357,1367.77034215702,287.5479316613696,-1565.9531435567146,-4816.166146210153,16296.388556958276,1793.210179725919,1372.2082923973433,292.4124625588085,-1546.5950068470158,-4951.115303623842,16246.313277345746,1790.8923890120589,1395.542414688686,275.36793645070935,-1571.749325082987,-4943.394095713601,16319.427446223215,1774.195319749744,1384.813861699502,284.01635989674645,-1657.4935538604982,-5243.5740548412805,16162.382281492904,1798.2570763581375,1378.1419866414928,279.3310836368738
-1632.0,-5092.0,16180.0,1853.0,1322.0,249.0,-1649.520252269383,-5010.807647554008,16155.560782380113,1863.3007170347134,1319.2623154291505,252.2575196733535,-1623.276457139174,-4857.77337667621,16353.473056572857,1839.3919200401426,1296.0827949496431,245.18022021338845,-1559.652216844491,-4971.576175813254,16140.270481227291,1861.9374288182469,1312.5869472430625,251.35133871887672,-1540.5921023224148,-5203.3909677446645,16242.440166233533,1830.6059170273695,1319.1402600416295,250.03897723670147,-1754.9587853077346,-5153.500470655316,15985.564040523119,1849.9254799592577,1330.8017316197472,242.96342939691894,-1716.7623440619598,-5146.330040102286,16067.654588145073,1837.03689034371,1298.489991741663,254.05949086757397,-1598.0378938638682,-5024.84054250833,16060.704207279503,1871.7512902853312,1332.6093322128215,254.10187814087496,-1628.5793412249764,-5281.620598264828,16169.930546809685,1865.4591842828586,1316.614218662079,248.12505632591674,-1824.9467727055433,-5066.643741112844,16237.498382115195,1856.1085997640096,1335.466783967459,262.8985977328337,-1647.8432937268558,-5125.045560920389,16193.711235230752,1858.3354482306265,1322.5534522877153,254.80960856122837,-1549.8830047314282,-5096.115910752302,16386.823742915425,1862.2560014388582,1310.4518943757262,244.59357366500706
-1636.0,-5068.0,16208.0,1648.0,1258.0,287.0,-1782.4996391167638,-5119.27802330655,16219.47946349863,1633.2892226660013,1254.1845134993018,291.0115483999451,-1584.3930843559265,-4894.31818713188,16251.643627055246,1648.8880225812904,1245.3122399804495,284.2194384941935,-1499.395162136804,-5156.002755787207,16018.732460729634,1643.7309389361196,1263.323259830565,277.29293451363594,-1628.956400081707,-5131.046913487439,16318.140355637825,1647.198885414238,1267.3980295952463,295.4126486851948,-1539.2052687084852,-5250.365243419231,16391.95101541428,1645.5940451079894,1250.9795179055,286.76646022304334,-1642.8324317230201,-5214.697684077068,16016.726258747465,1666.9910481835905,1258.2733041500614,280.9490620097927,-1505.22379210677,-4978.882250056509,16065.749072574878,1644.9424408452662,1260.7937951712524,293.5636213711026,-1677.5729536404467,-5259.02341293996,16089.208747659432,1645.353498129819,1268.011867725366,290.5387452730599,-1526.5372742142406,-5225.108087303114,16199.405312097942,1662.1017655090436,1247.9889072484705,288.86694064094723,-1523.4984602535817,-5085.94641877101,16201.468659540047,1647.9918656184893,1247.938028089466,278.35982268282595,-1696.8226810834246,-4996.099702482463,16036.91144102982,1655.8380800390087,1241.3587694725186,269.78331637341546
-1720.0,-5156.0,16112.0,1707.0,1262.0,275.0,-1573.6967339466794,-5104.569975973207,16319.655837411094,1711.9713388652956,1254.9443151778064,274.5199024176576,-1679.6834899687321,-5445.235879854081,16118.446313854713,1713.9174014381053,1262.3862016501314,272.39955504272893,-1690.684328373629,-5228.286124906321,16043.134134680926,1704.0235229773805,1257.1201328749164,291.4929277650253,-1729.9668043979136,-5368.6868702425345,16133.615097127755,1705.9408783808738,1263.5369954342593,287.1726082377895,-1754.8721087164067,-5061.94666937652,16165.534274832695,1702.1343494160171,1255.5253369734305,286.9145461327387,-1616.842625096638,-4957.102255607299,16253.072814963314,1693.8519402687346,1269.7692291314036,265.3655585568058,-1637.937508143274,-5151.331896577075,16267.998739557734,1712.2862650760223,1262.8002932938768,255.20611101725592,-1580.0493692186872,-5012.777857223475,15937.677989259135,1708.0876327510323,1252.5594106016626,259.82346777454933,-1639.9494324961781,-5134.89717954898,16106.978525611019,1713.1337731317526,1267.9661131585503,272.70250822727303,-1754.1938624643421,-5170.575988801051,16108.12896212873,1705.27452079928,1247.9247929263022,274.6166264370061,-1833.3203908964567,-5182.742439460326,15989.727896318715,1716.2303964623188,1252.5317028120658,260.6926023249061
-1720.0,-4968.0,16180.0,1778.0,1285.0,292.0,-1632.392658348728,-4910.450942586069,16185.320384039464,1772.785114432775,1273.929517336204,282.421984579426,-1743.0253884864414,-4897.228043661227,16022.40091746966,1788.5682536365628,1290.2582813391166,283.94157261001135,-1666.8792266167331,-5011.44801277468,16376.304109983746,1783.0867575720558,1285.5889426443334,281.46055695546426,-1849.9322379350278,-4827.499621992202,16199.496880238756,1779.475051332123,1294.2855510102181,309.3883357915067,-1649.6093564180705,-4918.627965396173,16072.1466470772,1781.0794358607748,1290.7416404844046,273.1170908597933,-1771.6837802012058,-4991.831364072039,16383.632329251677,1780.5094141843017,1297.0624289858933,305.5205037951335,-1681.5983170257384,-4904.624847348298,16294.224666536256,1777.037987234346,1290.6946633433856,314.13207690644816,-1750.3339849927027,-4908.525234370405,16110.159726347725,1784.2977550841752,1281.9762695475385,286.55196919884145,-1815.912684478778,-4814.671066104409,16308.68916049139,1780.562084399496,1283.0152392828081,298.2432301453371,-1610.2128700997744,-5056.31404787623,16254.708424037448,1774.4341013585588,1282.483574674035,282.59118327922556,-1764.7782214302758,-4967.546384002248,16082.016267065808,1781.8993013453826,1261.5926347090665,294.71498678029377
-1692.0,-5136.0,16180.0,1607.0,1290.0,305.0,-1746.6459603878282,-5094.657834483955,16177.109046210846,1594.681665799134,1289.5901162221849,316.99423546681726,-1828.7351378490127,-5106.2718740545515,16110.216955632395,1608.4679786573847,1297.8700742744395,291.75418475757095,-1720.6881146000176,-4959.169269145299,16247.47586967137,1615.6433186960599,1285.5998058232763,294.1065388018421,-1759.0019788114032,-5096.994216538157,16069.066695906478,1604.255370076453,1282.4611631589003,320.20851376097755,-1822.0311102413862,-5045.155376894537,15919.036578766842,1623.0940809659987,1290.2975671533277,312.4894307482953,-1651.429842255406,-5271.661550870646,16124.800886171835,1625.857074225573,1278.6656035139426,281.45389886191003,-1746.3364426142127,-5158.677507792548,16095.076568396498,1606.4018695570917,1299.0764152399945,310.94520869754825,-1866.5310302576272,-5015.933345716923,16263.262117241873,1609.3490192509862,1296.5040192199276,284.06198272218944,-1672.2587925295072,-5121.855047705648,16284.88635173269,1590.9199100702842,1278.4715718151194,283.42712231108374,-1850.46270383169,-5302.072921289828,16275.967260452704,1623.6044086745908,1296.6257116650195,300.7201829187775,-1649.3690591548386,-5263.805242022138,16184.832637317742,1603.1435409509056,1299.2215514847423,276.30771549975424
-1632.0,-5132.0,16180.0,1634.0,1313.0,305.0,-1546.046410893849,-5194.179715800081,16239.476110345846,1632.5975884107872,1304.9347396687142,309.6456015076155,-1626.1378163531533,-5049.484615483863,16166.491592155026,1638.626540233664,1306.328187237573,303.49849889190216,-1587.6264205135747,-5083.215881862892,16156.2592651248,1645.0312387515048,1312.0098597397644,309.01534177533506,-1500.5456284864667,-5210.634753632831,16246.116074859212,1642.627819877243,1312.274843183856,311.0474214677244,-1677.3662265971866,-5144.498780691116,16175.934195599608,1624.8337992924965,1301.359095998292,308.303192237621,-1521.9174925997445,-5265.450773773865,16142.508329652868,1651.2198324327962,1313.6934717013542,309.23759904419285,-1611.3143382235216,-5265.120198797987,16216.688925849396,1630.3573983455472,1326.282699950054,316.8991834665452,-1812.8714040844993,-5213.3953537626,16021.40520587393,1645.7069382631332,1301.6515207955624,319.31184283455053,-1614.7707532381612,-5001.151371037728,16129.529148442396,1638.5910941346278,1326.064994087977,290.6235098323501,-1791.1224273711662,-5011.511019408927,16133.439977312097,1639.1156599273818,1305.0962492560343,307.38250262292166,-1460.4306324900913,-5180.258897265688,16142.28104830064,1633.416955161872,1315.7697247728554,292.2121893372408
-1612.0,-5096.0,16244.0,1816.0,1325.0,259.0,-1793.795630667262,-5023.331449897976,16369.601004721779,1805.43494083228,1330.9734046496353,257.0051160353426,-1452.4719262518524,-4988.035694469952,16093.699451885244,1824.4218881300137,1337.7842027322154,254.6514674832627,-1426.8105031645093,-5054.111000967656,16200.8449016468,1811.0926709667415,1318.8413357664256,268.30494811972693,-1685.1790860648441,-4932.943228121825,16244.533000540554,1819.0746339421491,1331.009123829899,261.3603186835007,-1728.78847509589,-5229.655914719596,16122.851216479401,1805.561131159439,1318.015888561595,251.9789311470907,-1547.51252768158,-5134.316356121442,16169.976429137063,1825.0371761865936,1333.6592854870457,276.24419100348746,-1452.2217004178337,-5145.391160159835,16234.209714631324,1816.9558334281564,1340.6765965207837,240.9260861893756,-1471.10138612663,-4896.223611218267,16025.355426520573,1814.7465899116546,1325.2065912493827,280.0570204725381,-1724.6248653491589,-5256.915546019599,16310.938124203998,1806.0529193974742,1327.264711983632,270.0531181562324,-1591.2864584386925,-5220.976214233055,16389.533236967505,1825.4858884143268,1312.5948961622014,233.50574216651086,-1511.1770872397453,-4990.9914808335525,16228.550145464895,1820.2892905634867,1320.0556681652627,273.1526624390617
