IMU1_AccX,IMU1_AccY,IMU1_AccZ,IMU1_GyroX,IMU1_GyroY,IMU1_GyroZ,IMU2_AccX,IMU2_AccY,IMU2_AccZ,IMU2_GyroX,IMU2_GyroY,IMU2_GyroZ,IMU3_AccX,IMU3_AccY,IMU3_AccZ,IMU3_GyroX,IMU3_GyroY,IMU3_GyroZ,IMU4_AccX,IMU4_AccY,IMU4_AccZ,IMU4_GyroX,IMU4_GyroY,IMU4_GyroZ,IMU5_AccX,IMU5_AccY,IMU5_AccZ,IMU5_GyroX,IMU5_GyroY,IMU5_GyroZ,IMU6_AccX,IMU6_AccY,IMU6_AccZ,IMU6_GyroX,IMU6_GyroY,IMU6_GyroZ,IMU7_AccX,IMU7_AccY,IMU7_AccZ,IMU7_GyroX,IMU7_GyroY,IMU7_GyroZ,IMU8_AccX,IMU8_AccY,IMU8_AccZ,IMU8_GyroX,IMU8_GyroY,IMU8_GyroZ,IMU9_AccX,IMU9_AccY,IMU9_AccZ,IMU9_GyroX,IMU9_GyroY,IMU9_GyroZ,IMU10_AccX,IMU10_AccY,IMU10_AccZ,IMU10_GyroX,IMU10_GyroY,IMU10_GyroZ,IMU11_AccX,IMU11_AccY,IMU11_AccZ,IMU11_GyroX,IMU11_GyroY,IMU11_GyroZ,IMU12_AccX,IMU12_AccY,IMU12_AccZ,IMU12_GyroX,IMU12_GyroY,IMU12_GyroZ
2264.0,3488.0,16364.0,1749.0,1362.0,286.0,2173.7660522957412,3326.0597367131973,16381.56118002572,1745.9803405546745,1350.3834778454132,281.06601837111583,2364.662756741031,3527.789401625645,16375.730376114963,1756.445623396716,1347.6110676050644,297.6580104038274,2512.560107521653,3319.246094880513,16174.642591935903,1749.9544107825132,1361.9584046447114,281.3242792399918,2323.231841193678,3618.3337004080813,16372.594646146337,1746.7049322586436,1378.5859266188284,293.41087001567973,2283.5102324036534,3520.593994705655,16170.27143700235,1740.890700152231,1359.76887228403,270.7755299679784,2346.455745775707,3508.205245442344,16426.845923497433,1757.0219505268035,1351.6259247338771,274.15157862356125,2192.2399412111727,3448.968638515667,16366.34486879315,1753.685143309526,1354.2145000091234,292.9672903035406,2219.2520448644127,3386.3116022983277,16382.541200374646,1749.979683765616,1369.905509221409,272.9169490676631,2333.4950621205326,3533.5522392083058,16265.766234462093,1748.3074353824825,1346.3103457432169,283.59482451317876,2346.9268663181692,3418.8154568223895,16316.041431184814,1747.850096288526,1358.822727234,268.7371472110254,2386.701218557128,3358.661938365215,16421.82877583688,1753.382077640353,1362.7051149735437,279.415285611062
2268.0,3332.0,16468.0,1726.0,1368.0,260.0,2248.555861489226,3373.4196230744255,16625.022483745714,1731.118889501954,1374.7069405555621,259.0041401001152,2249.5302116827725,3191.1079103071297,16471.43987117425,1720.8709445121362,1364.9823699760839,249.48042121798494,2391.040909426297,3371.1910512469253,16598.09596150743,1719.4437135760998,1373.5883476374395,250.76886846643183,2209.6126320358544,3364.4892786526975,16498.0783279951,1719.14799668504,1379.5606229817313,244.68774604921325,2284.639416229773,3409.4259521193044,16458.089872009143,1737.9207786280335,1360.1160789971657,264.5762194149545,2207.753924509412,3369.0695524773123,16510.199885066813,1711.7733705165135,1367.9992062383587,267.26153821999947,2333.3259300315112,3497.4531752878024,16496.390131237873,1724.416024230865,1356.8709261333395,263.69134164641554,2470.1912883174627,3305.715501740075,16446.159910846254,1707.5490841004582,1369.025285000842,278.21271534963023,2284.642518944868,3396.9924636034502,16577.339974822502,1710.3992003763435,1355.1009244099484,259.1528227195841,2322.3626937915365,3603.286807691989,16475.681826422053,1711.5926604449792,1352.759849197649,255.31773180252648,2421.4844896539025,3385.3857206258763,16494.178974735412,1728.5821154068076,1371.9708667313218,279.74209792387296
2176.0,3400.0,16452.0,1791.0,1334.0,302.0,2175.4218132710143,3485.6737288253094,16406.21367020669,1774.3151372061398,1347.8441549671227,309.5737161387421,2433.351598758594,3120.889286623033,16309.0969954083,1793.1863487324565,1334.5836360138142,295.6421641789913,2230.8768177513693,3406.4939609075964,16515.66709154131,1797.2783835075372,1325.5013397093114,301.05788829550636,2132.285438210978,3362.0816861041217,16295.034487050043,1777.080634266703,1329.409460903219,324.1825656920428,2036.372639527011,3399.6137410172673,16353.532935016361,1796.6315364637085,1332.118255054684,293.2851086844452,2346.8330992065544,3299.657523874088,16499.79863584094,1795.811083375483,1321.9315261087481,300.9112541934525,2090.8073897850395,3400.6475380516067,16374.672539143543,1795.9250057477905,1328.7439317992387,307.1823352530441,2052.4162025304577,3346.076224891902,16471.2938898471,1809.476919449185,1331.6532015109067,306.1970681835177,2169.0811486725606,3470.0482627892434,16567.3068841443,1786.0246870889666,1333.3664747357936,287.9737241829865,2070.3164179261057,3507.669594019818,16600.497701418437,1793.933765491485,1330.6182159122977,301.3113296387495,2085.3304045964105,3329.953810726304,16243.432272845295,1788.920897546759,1332.8775388748436,312.11834946655125
2156.0,3504.0,16352.0,1754.0,1337.0,320.0,2345.849991045182,3564.7562373623105,16504.871320687565,1755.9223929221073,1353.2997095302326,308.5512905479006,2119.343333667673,3613.3590915840264,16364.566679211428,1755.515462548735,1336.0608825636468,321.8303697234005,2299.0281731536975,3593.689864836074,16305.193150620213,1772.3260044312447,1345.6369059857932,316.6533144774472,1919.3994737582984,3476.395963978473,16439.849753273265,1762.5869924910407,1332.1717817850476,331.22729849642764,2216.6753594371726,3347.7436156706276,16345.315646416944,1757.0183905063889,1321.175256118115,322.51391976114354,2041.690562642052,3564.4565987944666,16362.675649217517,1745.079823142695,1337.86960232395,315.09907895133307,2188.5767179963495,3273.91961092193,16300.90012174904,1750.7196976383705,1335.3882244482468,322.08104795975214,2255.48905967454,3507.0960402176643,16108.542484889444,1751.6726812668785,1349.888601336676,331.94123998274387,2059.3986701709364,3468.3998963587874,16335.674900789329,1737.5421276800475,1338.4282074125654,308.2113832100371,2283.1418134333167,3613.5699074970266,16456.085085320527,1746.9016983804481,1310.5684577643292,326.89092269812556,2142.2595626553943,3628.919560461931,16389.987915879177,1762.934653749896,1335.7393728895674,306.66169295779844
2204.0,3468.0,16424.0,1748.0,1345.0,281.0,2270.200040683425,3369.4413521210863,16312.004333371295,1755.4540727045674,1333.0005451178022,278.0246859899822,2298.355430067568,3455.4035009824283,16356.39444403153,1746.2985711768877,1340.3220329989906,278.2302077854538,2228.4888517014642,3375.8527529969083,16533.532184900545,1768.3491076942396,1339.0603625358103,280.6464633265613,2172.9576958101748,3481.827507813769,16483.504209090534,1732.8422279116357,1350.8279794733387,300.7216821263704,2047.6108627464112,3477.965774496319,16315.31326508765,1737.2067295057377,1353.4250275306592,276.2172071103889,2279.495553267203,3530.057716899136,16495.20163134267,1736.118049334585,1359.952346425064,275.1493162942779,2267.6889688820847,3515.006651468653,16490.24193953516,1756.422585055804,1338.880888171102,278.7499356005646,2475.813040467708,3368.621832551131,16305.504584562726,1746.1406013055832,1348.8980553692065,295.74306113513103,2278.4658086909326,3434.2996094990594,16477.990154836676,1739.947170878311,1354.1432877571187,272.44781304905223,2144.7478296349186,3495.411599290658,16378.98354354144,1739.1898572147513,1347.8145018286218,282.98073890532055,2134.4608121267797,3634.997906061782,16511.00572187116,1745.8623321686764,1343.747262992514,281.5154637549468
2248.0,3424.0,16340.0,1740.0,1352.0,279.0,2256.4215162941364,3412.644361381543,16436.90158607522,1755.0037503986002,1354.7914939775276,297.4768497640096,2112.8248124572383,3393.22856269987,16239.770300617285,1742.3417887792584,1357.5814280303632,270.9183770462861,2351.1241879629715,3452.450204185833,16273.676093733278,1728.1529524529628,1338.4653808952553,291.8535492091887,2262.981861277397,3367.4761569592088,16323.867097689568,1751.3369113478127,1356.8118881527967,284.5285934383637,2372.1226813280973,3407.011885898096,16286.138410862695,1744.2567800249606,1352.6678607071258,261.45610588251014,2318.562226950472,3351.7403214329283,16238.96875928763,1722.7343210249257,1355.7698655679144,271.109553058189,2358.5586618157145,3273.120481762553,16212.64535049411,1740.251974173088,1338.985568830333,301.03492514584434,2215.1948640334626,3471.9052715462108,16342.424089826,1752.738381744751,1359.711657808156,292.0431469557897,2235.9814188005066,3490.641606246538,16250.087063903276,1738.5578570889122,1361.1788744779512,275.12410765708574,2276.115002102975,3384.531356698144,16490.731731540774,1742.2419260683698,1358.3094522256467,282.84947847198606,2223.7486025324133,3508.852149764561,16322.420589332165,1749.220411320774,1348.0529753822852,303.6971715403181
2224.0,3504.0,16344.0,1731.0,1346.0,282.0,2234.0717576110496,3487.368206601324,16280.882428407453,1730.1068667475063,1314.6799542557994,258.489882772397,2218.827219123701,3475.017952293367,16382.050267573222,1722.8723653238746,1316.5335303341358,274.910233992591,2252.788902311356,3504.370560261766,16159.598138845204,1725.4153069191493,1339.9657563546139,287.208399978731,2239.1983248147685,3619.9389714813146,16497.3100229152,1726.1517203689436,1333.4410634995797,291.06251957547306,2317.231392414909,3464.106643343494,16429.87248790331,1728.4325854089047,1332.9227803109811,287.78376793404334,2305.4979653921805,3494.0803177539815,16315.6132828684,1718.4945990642475,1354.2960142407612,278.3197625704216,2175.1014726649364,3605.744010140248,16322.926601729188,1744.4531819028982,1359.6195402160108,274.0431775316669,2149.3517829093157,3490.072982530429,16502.92561835913,1739.454131298106,1346.5457051233006,278.7956565903951,2165.1985704026342,3439.9776312127483,16294.841200385441,1724.2137224091427,1326.8551508630615,282.8430420881636,2287.52040269928,3526.573135265033,16468.90702628496,1735.1493825026564,1330.5532225796255,290.11675320381875,2401.811654787347,3454.394988220362,16275.501538734115,1735.2883230720554,1339.196704056495,269.5387651399022
2200.0,3464.0,16388.0,1770.0,1368.0,268.0,2255.158325438725,3468.5093300558915,16342.311978607439,1763.8428648757958,1368.0745557854138,248.65632537233037,2093.346134802886,3513.554082822124,16341.234564056229,1780.8710102915163,1383.5694932830258,276.85003358846274,2018.7138006155212,3353.344553193815,16163.916646819236,1761.2676914526182,1356.8593622342962,258.47755163145007,2205.446366132977,3419.809923560359,16434.454495607173,1770.7179040409424,1365.2743846967571,277.1964439292937,2059.6572049840934,3585.286662316,16094.820308662938,1784.3479015577354,1354.8267234904981,263.6472409899483,2187.4576912815833,3203.037518169703,16356.533302755382,1769.2160409951596,1383.58341950369,266.9224208902258,2138.1837193397632,3461.0059888404394,16240.670621318757,1777.596209799691,1360.070006068169,258.7195588977382,2014.0968776216823,3614.216316483815,16529.478500568348,1765.374636510421,1363.1459736949073,272.87921357097,2415.301224858478,3541.925222570224,16370.32081884411,1759.5333767672973,1374.7778101493266,275.7392540265751,2106.7581854996683,3423.1275169036126,16408.507787548915,1756.9596068232904,1361.9926748762005,269.2462603926038,2291.798396192048,3352.574370188938,16385.575688574074,1756.2433083109208,1374.0384234391129,258.4967262062108
2168.0,3492.0,16504.0,1758.0,1304.0,243.0,2182.918807158842,3681.267022131026,16593.23714327425,1747.780187209939,1287.843020432858,247.6934561610933,2119.298083698472,3440.672607051023,16457.605943712017,1754.971618393023,1303.3297726014125,222.54607573921805,2341.618932504404,3290.444574337561,16547.444279006762,1765.854009069493,1304.0851944424437,254.69259581273064,2097.395472383274,3483.6709325073057,16482.068580777264,1778.0774856530384,1317.8007060943496,242.87776203972425,2217.615906598329,3503.262384863944,16570.839775011984,1746.0146710437425,1296.7025864146929,242.74286971166347,2056.3680297625997,3598.1287342240407,16387.47492496194,1760.6169651342987,1315.4381943726903,237.12451742483938,2135.945927752726,3640.184818445246,16552.732082706694,1766.0513008070322,1294.5531186274773,247.66623421510727,2090.520751495005,3373.4705985727287,16534.01832793143,1746.710431788269,1311.1116107566263,250.8658051663507,2224.836495969783,3455.346079226544,16388.406787838758,1768.5908116947544,1296.0752263946556,233.20325490367492,2101.5344945024667,3610.353602836606,16468.877362968833,1762.533128830728,1298.854913658299,249.1246980673439,2121.4208848886356,3502.896015977975,16436.11035843397,1761.1736065794096,1314.9962901358913,257.51867783581224
2152.0,3424.0,16444.0,1770.0,1327.0,285.0,2143.0235642755247,3603.661541835175,16235.894800865772,1765.2224039039531,1334.4182927556221,281.6442179623232,2252.905668127485,3229.050872547724,16467.11688096588,1771.3566285768127,1308.5867705815713,267.4309247713291,2146.0526039401866,3450.2108331952927,16603.98057479187,1783.2640723790341,1325.3948832233914,300.60608452006613,2161.0333373013727,3549.2886758852624,16331.849590651093,1776.6411468032857,1342.435292988671,280.7500317519316,2227.0899524967326,3436.005171960962,16512.163757577033,1770.537419667263,1304.258410672777,283.1075764189491,2347.705720403542,3307.1328545286515,16489.431857944335,1785.6562497084594,1324.7773416540117,284.96524962358876,1913.5497435513419,3515.822425637876,16343.556749895839,1763.2801800871646,1339.24005125833,287.1918301033738,2407.451183367899,3372.687452033351,16449.49423034582,1779.7707044033527,1313.9033747168141,280.5605244028295,2033.9388117437848,3508.720289605325,16317.6140378238,1777.6703590489699,1330.7589264176293,269.46046825942057,1965.8461138977593,3526.111182977663,16394.69046481634,1750.84892678008,1324.2469011278422,288.5989633835315,2100.7154140477282,3629.6648723483927,16341.278221177761,1781.896618297313,1333.3145498733365,277.085023371847
2208.0,3436.0,16420.0,1794.0,1358.0,273.0,2159.9471936575774,3514.6139609604484,16440.49587945478,1789.4078107091088,1380.7954188018132,285.3298985765145,2181.86221817273,3333.528944146938,16251.199445101363,1794.410037734159,1355.0672587041302,278.4264188043757,2322.6417556074794,3431.9833967875884,16409.172439834914,1802.6796764061305,1350.3976041923581,276.9381349792505,2264.727257895403,3343.7482070332826,16503.3177513496,1778.7639691504946,1372.1855533287858,258.026569309831,2224.9171943407405,3409.347594960663,16423.868175791227,1815.569007628214,1341.6932197681567,270.83588707537746,2131.873023943977,3255.4080531457307,16407.289346366026,1794.5306440735555,1369.9077933031233,273.7926779667425,2172.1069623599483,3603.4456658181025,16443.721663220575,1810.1448413872643,1360.3262800849836,254.77734717856907,2243.037092512318,3405.4909177165828,16343.295144957956,1782.408906303907,1350.0290652875283,272.9728026326332,2119.123689588594,3293.8725668670513,16537.7974767234,1788.9708225182005,1360.7280045706893,281.87359211000154,2201.8923971950217,3460.6193515463046,16377.656292426682,1797.6700374375469,1343.8710422461513,290.5404875996209,2228.294712378743,3266.42085246925,16501.021328473955,1788.086477953456,1374.9593348480732,288.1468116411092
2240.0,3488.0,16480.0,1754.0,1365.0,284.0,2172.1652438194315,3493.4367040999027,16452.69022162674,1759.8594530225544,1361.5845294183307,302.98698489574883,2256.425610817415,3551.0439215810447,16451.092088257334,1757.7757875716325,1366.9864436414139,281.1333042743152,2186.715261060489,3409.66769532173,16344.198841477028,1743.1067847919053,1353.5809645103438,278.644751319181,2090.4850231029027,3521.100249886612,16420.54454491706,1762.6123902212785,1369.253927176808,268.7871659355245,2350.3962328392695,3548.9932463780706,16327.360732199473,1774.813558326702,1373.4305008326073,275.9504019788603,2272.575092953717,3396.8546999271316,16345.932490973328,1749.6742420300532,1366.8776591684814,274.1880686434563,2128.2729721436167,3547.1242257732747,16607.023326834133,1767.6062341420911,1372.7833166123087,302.61654463181287,2324.5972607691538,3593.219407002125,16432.135256269332,1774.0783104010561,1361.7004670148822,289.1452826095316,2348.993883454583,3629.145033388989,16495.039850816993,1747.0394951071235,1360.3152361039802,295.0882058756683,2261.1151572583203,3532.9054219705376,16422.998596716992,1745.3709342954758,1371.7611758226697,283.41369858580765,2345.852954207211,3463.0600542725733,16329.207787110177,1776.5533308604647,1363.9945953762344,295.8987431132397
2212.0,3456.0,16464.0,1753.0,1367.0,297.0,2198.3586435819366,3470.831492559794,16485.312842405263,1749.4282803585158,1366.2614190794936,294.9335807482585,2177.1729770935904,3416.442091311882,16377.724828428922,1739.1955852356489,1352.2335166054816,283.05295852033873,2208.258398894793,3399.6381609965115,16724.47559640833,1740.7219213913427,1366.9884498040265,300.81809605036716,2469.2834291482445,3369.4493764824297,16562.42038484046,1752.881811475487,1374.4531204529633,291.2952341747611,2190.933212078021,3384.849269159272,16656.224038447417,1749.4644250015565,1367.0964826050345,304.8910645128785,2390.1649361790705,3490.187170604364,16381.409765160253,1749.894629772312,1359.7871067909784,298.7210316659054,2392.251518922152,3411.2605403272564,16276.13018748043,1741.8845155014717,1374.2813716399976,300.5134327497284,2188.5925633301963,3569.943266381728,16493.600338039778,1728.9094684885322,1352.2024555973635,282.5875929921645,2130.4938981084633,3384.9447235402736,16487.9115746247,1741.4272564684995,1354.8275343097675,305.8185146492484,2471.922167827907,3477.3052135080056,16599.953266276683,1756.0164901520068,1363.39439568131,290.73671198709303,2292.800866706333,3591.276103881636,16665.29132661118,1749.196607333103,1370.2018053748832,305.23586613637355
2184.0,3440.0,16496.0,1702.0,1349.0,292.0,2270.230410498631,3419.596623458761,16453.012736674933,1675.9973657257133,1357.0622193934362,304.92823788637867,2078.361449211583,3375.8601233327167,16506.75794246399,1697.9224029990814,1329.750482233237,285.06731458854017,2305.826233515301,3565.260793542747,16433.00104299236,1686.216290762784,1346.1553125538599,281.5428412584701,2162.7442884601583,3433.9795548130487,16362.740242743046,1703.539118863387,1337.6579081577343,294.038060460734,2281.829427365864,3487.2142883890847,16370.774149159864,1698.6713936176495,1364.2673724203116,291.26218032014674,2103.041472698727,3312.327784355934,16624.788082196974,1708.7515089801116,1361.3450356389726,298.7031718720576,2122.871400534202,3315.355574283402,16553.732555181265,1706.169561091099,1350.8556756912403,286.7896912371912,2297.246243253804,3586.7803963218103,16335.21984621512,1707.7678028021855,1333.5249865624908,276.5591953947049,2012.7826759787013,3512.190445152953,16540.170434697317,1703.1096451981273,1334.3729473278424,286.5888605821454,2230.5582070194264,3436.765604005783,16498.650429926576,1721.4498631927074,1350.8799016460525,280.10803969723486,2183.621199023347,3481.0358362549596,16573.837656527678,1700.6200697633774,1357.8952550212869,293.5827181548554
2192.0,3496.0,16488.0,1775.0,1382.0,263.0,2152.370478445196,3443.198737471353,16369.653985429073,1772.7481588170435,1386.8188485030325,270.63371364086026,2291.744839698037,3609.9489308629127,16525.266708832456,1780.2081762862974,1368.9954963829157,256.7283148411181,2232.636403557958,3610.3610964259224,16487.974348662396,1776.0669591296205,1390.8875388729375,262.69755894977675,2329.207935169031,3392.3830914198165,16660.19227317571,1763.2953877773684,1388.1458003322123,272.84504095719734,2164.7104467446247,3599.8292941106847,16581.78185075794,1768.1817504911412,1382.7018383201196,252.70603394062144,2122.811757597052,3360.735627454219,16555.451972526524,1785.1538860505987,1380.577548814234,261.29273785165435,2240.561001934587,3297.3633663241844,16346.810511965023,1769.0519470414754,1387.7085562736268,272.49876242974386,2213.9496610129077,3463.8082161066377,16508.968002944617,1778.215155927999,1384.0741234251868,272.47308735749715,2276.4451276027003,3432.9100225646957,16496.688533999168,1782.1279700021232,1386.7179225947198,260.462797260583,2148.0863638779992,3480.604277982595,16400.367168733617,1767.8621692439156,1375.8445672429207,258.7457870105058,2310.9987406381824,3560.035662707519,16472.18625910746,1770.9481315531955,1382.212741411738,259.7266423127164
2152.0,3460.0,16392.0,1718.0,1335.0,275.0,2143.9004273707806,3490.042930440582,16443.297181276557,1716.988207436248,1326.5602762681124,267.2991416943537,2282.3789807923317,3365.6858106122627,16558.32383439351,1710.3142441770099,1341.8372815532155,268.19069136487064,2228.467563393846,3517.4043653284225,16303.753142221665,1713.944329249509,1347.7562717050425,283.47952220300687,2178.379563045568,3482.198612294954,16474.4461507093,1708.6501145706384,1336.2382099020062,274.80156144146497,2245.287818366697,3530.9433874265,16368.338939720465,1710.1400689819104,1332.1026942966873,249.77010263830664,2081.0101266328206,3558.4106408403777,16306.02487856529,1700.164211807312,1326.9531372980994,299.22664586185715,2039.6986252254185,3470.1999467383625,16253.988829536487,1704.069017196668,1336.4358987290145,282.3916352820413,2256.811318457281,3323.9561180839346,16465.89018198681,1725.5325493995936,1330.6914611421219,276.2094586210453,2061.2481887622966,3508.409288579567,16501.37227371601,1722.9808095695862,1328.079178472088,265.1729678564611,2375.184456620425,3808.4864959550578,16275.259083551407,1708.3044090127378,1334.920432272267,271.97336801806335,2162.1565997975845,3586.466519226139,16402.773486073806,1721.4386253720068,1350.6295732044568,279.5076640076043
2204.0,3472.0,16348.0,1758.0,1352.0,276.0,2154.093776512044,3467.547020796159,16274.449522052768,1744.4725845668952,1343.7873246422896,275.6695525026427,2117.1489195367208,3455.198334644792,16288.138378080945,1758.5804705195146,1356.0475988910225,280.4080331599336,2292.396574225606,3569.1513536061675,16370.293627199,1758.915383283092,1350.3199198172038,267.60848353597083,2001.0215251056095,3475.1137329108906,16431.522257913013,1770.859885274352,1347.056375229307,284.3878052364528,2198.264896862122,3421.215777533435,16383.475114545869,1750.9661587683654,1344.8143797040946,250.38997172795555,2098.9156007314473,3273.3976676639104,16261.404476518142,1742.9768450305269,1354.631449628516,283.0895503126319,2091.1783837209496,3462.2860391705244,16337.805627627358,1776.0638281789809,1355.163862696964,265.06619498388494,2234.0707663834933,3526.8430270421486,16422.032122513676,1762.7922688650397,1348.0297941620458,273.1588043121732,2240.651963567596,3542.0700441242006,16259.184457437068,1767.3679451858106,1361.3992416242038,261.8443655652408,2173.526305036264,3440.034035136073,16182.543084293786,1748.337950949451,1343.5808143673087,280.74275106823586,2165.0546913567923,3481.851382589236,16528.305074102554,1763.1613136109784,1364.0962407518184,266.680679943971
2188.0,3460.0,16360.0,1690.0,1301.0,235.0,2328.286030039708,3387.312842757076,16256.574936941512,1681.3549319764447,1283.683700487219,230.45978550085425,2335.132395238472,3473.5017915668145,16321.235801592367,1699.0116320644802,1290.96973246933,234.34959242475404,2086.02221683707,3364.741437175057,16385.590519506917,1665.9573322258661,1305.8438241838203,229.76710754043648,2061.6400057708756,3364.427691497133,16475.89864019624,1680.3218743392458,1283.3579066585999,235.72237176157978,2129.118837703591,3544.5468401795615,16309.619410025929,1682.2155787636505,1282.443310826565,233.05290870637037,2101.9025831106464,3648.860407463213,16627.46087742098,1678.6591344658477,1301.0914267550106,252.48419134876724,2306.2372562769956,3376.721520323056,16395.76467099354,1687.1351609426074,1290.4710381750142,234.39754547501366,2142.3762171113913,3559.168715969187,16336.673071457079,1689.6570593135614,1307.1084684988,216.34857434418285,2276.6106402825917,3338.488181389513,16176.635615491054,1702.2971811309956,1275.3789507641236,245.018333170846,2235.641692094929,3559.545000507161,16262.334356625082,1682.10967884762,1302.9740081802508,244.1228088716346,2091.2454837331693,3479.512572063823,16463.118560797608,1688.398966200329,1286.4368039977253,238.99515824438768
2248.0,3480.0,16336.0,1656.0,1316.0,250.0,2344.3893091919604,3483.9972056449606,16514.355958440177,1651.2828854854574,1316.8179722854072,248.71546071525495,2218.1863411531262,3518.4594121273435,16338.914575308138,1659.583592053615,1320.6955687006575,252.91036552251623,2313.5655940759525,3401.742432634968,16400.78693405782,1662.3554930113903,1319.1054917642355,260.1135734307353,2231.4219438909863,3540.8758858666515,16371.549034185395,1654.5534072568007,1313.4060615775156,232.67330978813936,2218.8277438341233,3445.8485464352934,16295.652895734904,1646.9858935991588,1315.1746008569032,270.4503357261047,2270.0013802949325,3384.3577892149397,16321.61739304666,1654.4112574231822,1321.1538966395572,244.60605359042472,2153.6935498987887,3523.190146088338,16389.361893136953,1646.5734961151984,1318.9462159512982,262.6541412382561,2268.186044155585,3661.1524008744063,16242.334049914529,1646.7554124590583,1313.5725061649982,258.6090009906312,2170.519594511837,3369.452444064265,16233.29459110087,1646.2575815969021,1338.0246968889835,244.90425508003543,2298.475368376416,3357.032131937645,16430.627763261033,1680.776902302661,1326.3822192084822,232.12603571049166,2383.5424488899844,3632.8131043889816,16331.27943204467,1655.4585207568682,1300.4218286952887,251.8814376190437
2220.0,3416.0,16340.0,1730.0,1328.0,304.0,2146.2111743124633,3545.1686570461807,16237.623005999763,1731.7766864348766,1340.0082506950018,301.46888613723604,2190.7564789875332,3559.890688335789,16268.757172218891,1721.4750473167496,1326.1990104537656,310.82876189503605,2224.2073173398585,3502.889760328402,16148.664974090641,1730.1351576267482,1326.7484746627438,310.69709601186184,2037.481087057056,3106.3137031799233,16465.834178132474,1743.2476197845967,1339.191884166387,299.9653236973539,2072.8534767688866,3509.8591677240815,16314.285489216209,1721.7026502073438,1331.1296218719776,315.982280353721,2240.4038141114934,3469.338937785511,16235.2413312551,1734.0927083056627,1341.9696705828035,315.0970226566845,2360.4610707820375,3544.1470807749497,16380.376607983986,1726.9584206093152,1328.1819194200812,310.39820447763196,2083.67398215508,3299.8221490475053,16461.18500584867,1732.7890705702441,1324.4952237012933,318.32931625685194,2289.9422545768225,3531.4829075759617,16226.086330642356,1707.1209065485932,1324.9737973836714,299.0136340096559,2121.91442692733,3371.9541256022567,16319.434126027256,1722.221568020542,1329.203809877307,301.6953454122954,2236.2740611342683,3567.6785496753637,16321.620542430725,1723.2786675402297,1317.1257015394738,314.10377536199354
2192.0,3452.0,16464.0,1802.0,1352.0,293.0,2260.0506701910376,3475.3491773463243,16364.143592800263,1809.0346910028456,1352.7308888838843,291.618147723483,2279.6185068871423,3475.259952691051,16555.551665836723,1797.8634717724583,1339.0888929188245,287.8455783170789,2101.813359227286,3558.5483090013995,16418.111779492596,1802.2519121914918,1352.1111268919576,287.23350089255126,2171.4216928778706,3332.142670420369,16396.920124491648,1813.7729726212788,1352.8723952037572,276.2787867609816,2223.5616096530193,3451.235617432993,16714.885174256717,1809.7701647366912,1335.76934570577,296.67634320707594,2168.7698582041226,3497.1923991519266,16425.02952956793,1796.9154618004889,1345.1919168822058,306.1744015437168,2203.72182734899,3199.556583554182,16386.25426751804,1792.2152405576057,1346.9487085716023,299.450588463076,2314.566728868863,3445.3417520251683,16461.854750528764,1809.1004488139076,1357.8844749386394,303.7515133657187,2290.5934744020715,3482.609617347891,16492.44964377265,1794.9448417836227,1355.4505222198923,304.383726229631,2021.5504515165644,3257.7733247342358,16471.029234110807,1800.8410833760474,1351.9926206183459,294.84394255782314,2214.6062811156285,3245.878400199968,16433.49745213817,1814.2080876138998,1353.7129823849284,284.4719079280172
2172.0,3404.0,16372.0,1693.0,1324.0,272.0,2270.1798857720173,3398.8477434925676,16533.99044790943,1686.2618433645669,1319.0146275327113,255.9908779254948,2106.276861700849,3282.2773886922337,16450.953842245966,1700.7460248645832,1327.3764944007075,269.73279437493915,2246.535355678968,3449.0167958304296,16296.404573417363,1687.0796202203321,1334.3832401263753,265.0523594185766,2094.963451597161,3431.184055095747,16230.579712976023,1692.5052006789326,1306.396318028199,268.5036444024717,2389.5176211579337,3385.8218893354774,16411.39475370977,1700.7269634670133,1327.0162027869555,286.39645305589636,2325.962605447167,3335.220577486952,16500.184361603962,1682.5130625708236,1342.0493149495917,296.9656477551859,2135.8823920333057,3429.2669382556487,16457.983879675023,1686.1809869756053,1323.892384118872,264.96137791231916,2361.781008496739,3444.0152888484517,16533.236062234388,1675.5139175184438,1326.547446069393,279.95352064636563,2044.9679576248077,3442.333380268262,16390.769188983108,1689.6581296885322,1321.1084624338903,254.47122756967528,2105.7024073612592,3395.790539493117,16427.517898147868,1692.1060677083215,1333.61076321001,273.19403702414746,2290.6041564292545,3388.0550089525454,16218.872748985255,1694.3276582019744,1332.048061141685,266.78475301552754
2300.0,3428.0,16280.0,1761.0,1350.0,281.0,2402.999307369454,3483.1663698796856,16280.023319875101,1756.3558564356194,1357.631656163428,297.2031525032706,2291.487920258523,3458.303561180543,16371.471159531282,1756.978643271765,1358.4601593881393,269.47108287848175,2242.9851109542137,3232.9787519531146,16320.947128659402,1765.1142371065512,1355.892778381353,288.16026109314595,2515.0727212461466,3548.0468256205017,16275.62091754602,1760.8981073644666,1353.1104860140267,258.7723927889645,2204.425811207102,3350.6841966507877,16281.929031380769,1766.7673274295344,1337.8475364980752,285.7355944440658,2306.0303796652533,3506.3726347643174,16383.125747225135,1758.4510977263478,1360.1313081675314,283.56378936435993,2232.20908628242,3460.390624807106,16081.008770287897,1757.4383067363406,1361.19884160423,271.1781226019871,2160.838303143224,3359.7884418391172,16182.02412508601,1749.8348305168201,1349.02603780724,281.36437619092465,2348.4679636280466,3368.985013618556,16086.624306109066,1751.7301889577489,1345.401059109892,282.7495729913467,2311.73670559932,3273.122124038776,16369.186497771256,1774.5003395538417,1348.7016513486706,285.80527378261434,2379.0571521848337,3346.4909173782917,16198.6755794662,1765.9595049538907,1344.428715444197,278.55970674410094
2220.0,3456.0,16284.0,1863.0,1391.0,311.0,2181.5731800997164,3309.090806213388,16390.36886112892,1866.9017360436148,1408.4667947874646,305.13354094551727,2316.568760376347,3359.246822974907,16313.499789986961,1862.934647449632,1396.055049351889,306.4007471106353,2066.591557406306,3528.7202767960903,16177.5419010575,1850.8620994577718,1384.4726999221323,323.1775042511328,2158.6496034244897,3384.098543716508,16094.938334273384,1857.3901098270142,1394.1194200438433,297.9110705651225,2182.954589114684,3468.2714082705165,16284.23424112219,1871.2397320358148,1410.4050374552055,320.3662702414202,2086.758250280151,3377.228438915354,16303.99397645714,1858.6970232283138,1380.8121522366382,306.426189101003,2166.755059987106,3462.318423849571,16194.101438917602,1864.550189309295,1388.4359035688117,313.7262757266675,2228.2386150439497,3486.7482273259775,16207.145131805159,1854.0493171482337,1394.5442101066885,300.04944817260275,2261.555074814314,3552.8645363096807,16385.81233979052,1883.298984953579,1378.4757871936617,305.0739185812498,2356.960944133598,3437.4931324494632,16248.82128444036,1857.9477095932991,1403.407864346858,291.7936824382072,2216.353194734021,3512.8769090879928,16153.373090075911,1873.9147998419817,1390.8021148175562,324.72392781784924
2144.0,3532.0,16536.0,1829.0,1393.0,322.0,2192.4329980468037,3605.4547570212835,16588.633707459612,1825.801858701979,1400.8314409148968,305.74376536496965,2025.5573824102628,3420.560545634216,16395.290453035006,1834.0184500291314,1396.70700817107,322.0386006808209,1905.2416263837392,3585.8814608263483,16554.943911019458,1828.9401495921818,1399.4410513129828,330.50353341778583,2163.287379116869,3387.236340044905,16556.285804730407,1843.1781880741253,1401.0883367662523,339.3111675578353,2163.526549380134,3613.630519181513,16642.692706720536,1824.8986762059665,1371.1831685170225,326.978842042643,2248.0576689982113,3626.6688785682422,16607.900914933314,1808.659107461874,1399.9353963588187,333.91597579387684,2169.6656574369426,3683.6165129858873,16582.63483523951,1827.0573796332321,1415.5898937502127,322.24340311113923,2140.135462442741,3478.9248422982746,16467.00680055697,1833.098634040886,1399.5383293007867,336.38424068028297,2019.841685465805,3425.5538840801782,16483.613988159195,1823.8537910668563,1373.403523607652,324.02421990504854,2209.191092094608,3445.5803846333183,16603.31164122996,1841.9244222806794,1408.0578550044731,314.84713876881113,2023.877104140587,3531.711118055911,16660.5491335206,1832.05878416412,1398.0687984127017,311.4910277416615
2084.0,3488.0,16408.0,1748.0,1357.0,270.0,2125.5640079478617,3631.0492589843698,16450.887523715483,1755.3563307408456,1351.5434159298359,267.6108561580095,2143.4472837190074,3574.4918025022253,16278.43378176487,1744.8702999238283,1356.056229778022,276.6325770951629,2172.1570582151353,3456.58110324875,16451.159168918213,1752.0609299104246,1355.591468197351,274.6059952955429,2105.1365344775645,3531.1034542980487,16330.002479218852,1761.5779761359418,1361.9098941992568,273.93658859645944,2140.2026302415,3479.1174599570168,16437.20481348189,1751.6666796257534,1343.5735506466763,252.60121494754569,2214.717271454224,3511.2106456226097,16501.380019885994,1739.5660782410328,1366.3459197500574,260.2484710466906,1871.1676584893482,3539.14618953728,16492.493574336095,1756.308033832554,1358.0706628045614,253.36852145845052,2010.9943039487014,3427.8138254999812,16336.098863030744,1737.2006685190759,1350.3193599209694,289.10589253333245,1866.3504497577649,3391.200813598781,16384.63299087174,1742.712921613678,1352.2790835882286,267.4955707565481,2135.6287968975803,3410.077392726891,16305.483274771577,1748.7031877695538,1350.5241794063072,261.47838957484595,2017.9492268315853,3493.858009130814,16393.869862210795,1731.397329585934,1343.9452393504241,259.65061464170157
2236.0,3400.0,16312.0,1760.0,1382.0,289.0,2246.46308685413,3588.1299685385166,16291.227568350077,1758.3069783785402,1373.3249255413732,268.446679035017,2166.283201150569,3456.221667475163,16394.56752888193,1743.2105441183724,1382.3833500522455,296.5330531904981,2254.7035340174816,3363.6173054578603,16281.124597333546,1764.539738638285,1377.8398877697214,284.8403215848431,2254.424775262313,3489.220758937998,16295.373563772528,1757.7881577855126,1391.8106771912135,295.59330914478073,2260.164982032811,3260.330349148998,16329.8252765385,1766.1118269541578,1373.6407342958357,282.4286526868676,2344.2222242881235,3285.2233801257944,16314.790856055593,1759.4986911391607,1395.4667456638242,296.92046364360783,2318.1164153785585,3380.8574431018774,16306.460931434645,1768.77239499425,1382.1462163921917,284.47403386205013,2297.7411707877877,3486.3200809336577,16068.016252056981,1745.4665549992524,1370.7645635857195,304.6158730399544,2419.5884648213323,3267.5817845486963,16275.340690310446,1761.5254867177757,1385.7585681018945,282.7374574615447,2351.588335821427,3282.4683136997774,16301.127770228795,1756.6421274274783,1378.4836960981406,289.91042893197294,2205.1847656050504,3448.093674557015,16192.937670698986,1780.3399433194752,1377.378527781136,289.5345208954807
2184.0,3476.0,16356.0,1785.0,1358.0,283.0,2331.064095553849,3526.5496766406454,16469.760710865095,1785.7987525136873,1359.0960331491403,259.1712735446191,2184.1074367253254,3442.65509172676,16402.300907702676,1783.6908334055092,1368.375309592432,290.4981348928278,2221.8836440433984,3681.7423444112387,16373.440206032757,1772.564174801083,1352.4805805566289,272.10256674945435,2280.658295323008,3668.9521958700757,16412.912788674366,1785.915671045513,1366.178214718875,281.5368996263342,2313.5533308352633,3246.4363433825615,16416.816476876185,1782.7418218746798,1355.0966661657453,273.324170369097,2151.2730329958063,3364.784535152446,16267.212077153274,1783.2070351624639,1361.964491588911,262.80568354736414,2231.2594162370337,3545.2114040854312,16311.465714087266,1789.3816746213652,1345.5091887080978,268.5205867546339,2111.6242062895203,3425.411825992281,16333.280698672266,1778.368530455055,1362.0886000880944,267.8271050837523,2161.3450649890956,3348.078473263094,16354.144077173203,1781.1102328076772,1343.8292809425454,284.77817021157676,2087.1471861962655,3496.179221528165,16383.468581469779,1790.6038813804403,1369.5059044149148,277.26595935426235,2088.5171815932954,3406.96682837029,16304.330198719834,1780.7250312026938,1363.5139432180454,261.60193676192694
2244.0,3468.0,16388.0,1794.0,1379.0,281.0,2249.4709619295154,3477.6034984051043,16516.54364247812,1803.896767016568,1388.2699233396963,285.59936088375275,2022.4789369857679,3498.3187453627643,16319.90804377038,1794.2299409571167,1396.309887339903,286.7517942949516,2184.197268739062,3294.7666428370985,16367.479105611721,1794.326900603551,1381.906028093239,279.3938311200888,2147.129567112041,3667.335626328352,16331.839930163875,1798.1158592934614,1393.294805115916,298.14783214150657,2356.0153157357945,3482.6565008357675,16412.714086765824,1775.3324581984825,1370.661925668887,260.20411426458213,2094.7298481503567,3518.4795323572534,16568.043562680185,1809.6525644418944,1390.5745269984411,302.1391045108798,2380.616666753545,3497.0841184738383,16550.282617507157,1814.3278648340615,1379.4746046712405,262.28191166568257,2315.9099740011397,3405.4525366141097,16340.851876650851,1805.1225791156241,1364.6825447240738,293.7165725716715,2266.9993809188204,3468.130812157366,16479.910182088406,1779.9671567154783,1370.3793627302132,274.0765396649669,2153.1537463723075,3364.312149111047,16336.464508253448,1789.9170979808914,1383.0233670939097,278.7805013744473,2265.2756748454312,3500.980384130173,16453.5605367599,1783.0727134790072,1388.4440558802553,281.5153654348307
2208.0,3484.0,16388.0,1739.0,1339.0,247.0,2067.1814477726407,3393.559259594326,16318.556037786604,1748.3768616574912,1354.3143708899513,258.72565846872976,2166.82438442528,3456.7387323683142,16334.14958933668,1745.9015590225445,1350.7170577541947,229.45078117494236,2103.1198384264508,3449.520863259695,16438.27392925097,1735.8378611073883,1344.4549757737602,235.62014527303535,2185.7424968522296,3620.9412954758745,16469.67211177498,1744.3724577125047,1339.995708607097,256.8346895743184,2111.1084597444224,3590.3570257880597,16473.530895037435,1729.6383297890372,1336.628857685955,245.5916012511224,2143.9254809229424,3441.7145816368948,16404.577546042958,1735.559492003073,1356.5363540297433,264.07241597417703,2372.7864439125146,3553.923326412203,16392.425393786296,1745.007550124058,1328.6871913197565,244.07872571206278,2074.0722475199395,3418.257434397764,16483.061235037403,1736.8922286175448,1329.0344832390508,246.93957147049932,2104.559448925371,3435.4042284743455,16419.30064869028,1741.547656540624,1343.5669616581174,249.95667951960957,2271.180230680143,3528.3183277748344,16324.477012146179,1720.3338900889794,1353.7401246221295,242.53057118656778,2160.2529489691506,3450.4969194764876,16447.139943550985,1722.6366622137125,1336.1820519804776,235.8863075834276
2164.0,3456.0,16432.0,1752.0,1394.0,317.0,2255.3750854566506,3252.8763775120306,16526.65182788144,1757.5061052818862,1402.5201828479264,326.5903005864735,1939.8494156119227,3351.632318074626,16376.721870448611,1748.2327082886306,1403.502002123443,313.98474537545815,2166.0502344985557,3533.1192613257763,16497.45389603122,1756.8601030368452,1395.9478619248096,320.0044281330075,2194.60344337261,3387.2221559388145,16497.19536552422,1759.8218594969874,1408.0926630157076,311.8910355444068,2245.146121168181,3410.3128430409297,16457.64416661647,1752.7935549975832,1389.1660581270294,318.9906789206982,2115.1220342975544,3465.574028884443,16320.165039218353,1746.6135778086718,1397.4618950138297,335.19135335264394,2180.872241256764,3474.5550739708387,16616.132226521557,1754.9167376068349,1404.7128633311415,338.45787062103136,2099.5857531512765,3488.3590621596686,16469.803938562985,1757.1097382437408,1397.067335077056,316.75628960869386,2500.8439950235465,3505.4284513937614,16491.562155548934,1755.047460188461,1403.945049742021,331.4456319986199,2039.6483893958082,3324.7458846950008,16559.941165754397,1753.9746811129864,1382.7232683490897,312.81394590431916,2270.9888767200805,3324.761391327966,16524.381303668008,1752.3957429562777,1400.3696682321065,326.19343244794334
2168.0,3416.0,16440.0,1751.0,1367.0,297.0,2379.494545461308,3362.0245567190523,16352.44008243259,1760.8593190912582,1368.350069526911,285.287799549194,2194.53233839204,3463.6363047275495,16480.344854839237,1736.753673854571,1378.1281689881291,300.7944388451204,2148.833733913141,3422.0193888690787,16483.369177374167,1758.0846965720384,1370.3558988589127,296.522700649167,2424.3338917276596,3432.1631987855717,16400.646961950035,1736.101096719893,1384.2259551511268,290.3006089988446,2278.9715066769704,3492.1250395860284,16421.23621265388,1745.8848268950333,1384.1033412094853,295.6135156961716,2319.335121804849,3305.2616382869774,16421.653759509267,1755.9038180723712,1368.0029708857655,275.45873386407965,2162.2628621404797,3402.9512697191235,16628.7833992199,1748.0559613407327,1344.125847188737,312.2468217744661,2189.1070998300675,3247.3912274633976,16523.28217435679,1750.9317922570215,1355.170165995106,297.17731267094365,2143.5193329370436,3458.471894148764,16549.028070458102,1771.7362074321045,1366.2670984842118,313.51789150480647,2085.956112314718,3256.9879104452475,16437.418533807348,1759.2925630815498,1368.3713554791966,292.7845926028645,2194.078873770813,3231.825230645334,16337.222739154502,1757.2276601028423,1360.4493810439033,280.1435369719445
2192.0,3496.0,16324.0,1781.0,1359.0,314.0,2250.248738629661,3692.551635552801,16538.477755794036,1772.3094666988377,1349.6859691508637,317.01060324480886,2253.2561766589156,3223.475969987081,16373.681009462602,1785.7688543351633,1362.2096890103826,310.36542745378034,2293.768698781706,3500.6624592329567,16378.265465417526,1791.4424129063318,1358.9863013787876,319.6720954726691,1930.772243628253,3513.7105230924417,16290.55366424765,1769.7431470366598,1365.593588507647,323.54405585696725,2179.730274482866,3340.005953671051,16406.394305057656,1762.733382428076,1362.537392348693,312.98868736937686,2250.2062760779386,3497.355012697722,16437.412770631538,1769.8408387903307,1359.1962612962275,323.2296384068979,2122.9369085286257,3545.311509084923,16197.0566048673,1784.2258803819757,1361.3513035649328,321.20429669140026,2266.6722525748005,3652.7607088182567,16395.693212032693,1778.4371131476776,1367.8056475670048,307.1822505705692,1818.3302931262274,3644.2726223620607,16310.891421130485,1782.7468300795742,1370.8873611934712,312.9256707679858,2302.3129329224303,3578.912983973978,16286.324017076162,1776.8152012657104,1362.0802943724461,310.2807368406422,2106.314648956176,3666.2676800608797,16362.686998683846,1773.0650293126,1352.9073871806231,312.19692899838935
2224.0,3472.0,16344.0,1773.0,1359.0,278.0,2345.3667835479587,3531.164342136557,16304.29606500474,1794.6749455697686,1347.5086329690869,285.18548587109115,2169.7469757659514,3559.7338715669684,16369.659245068326,1785.4055786312185,1366.5823412328946,266.3429021432575,2383.695648642854,3488.248634878725,16258.050014010918,1743.149905094449,1356.1636110362,267.1666275093594,2189.1513835085384,3586.525267610923,16391.45834157532,1761.8526473006307,1355.1861212849572,261.3504536065231,2109.827790098496,3336.041708748887,16353.53496187577,1778.8841863864566,1364.7406442670422,290.70408700243934,2213.9690540446677,3531.8861838762973,16349.566205752773,1763.656148116297,1365.2750801716068,264.4811634362785,2264.0400385250437,3491.1470385454354,16500.40176183762,1779.1521330838955,1356.0559984676584,278.15419099120027,2251.1587317881967,3562.644281323294,16163.872315004195,1778.7472849419646,1383.6390216913867,284.51841573392716,2354.3142919743837,3487.542367270256,16279.987640226453,1779.5084609036103,1353.6177790134777,286.3526618442487,2262.7991445329762,3363.789363849942,16409.14851569723,1772.0379803931205,1354.0940792407118,304.5331825827826,2158.0322194327673,3359.2297181207687,16112.04288096178,1772.7771843581186,1358.867623519498,280.9153836155809
2168.0,3476.0,16400.0,1736.0,1331.0,272.0,2186.950385177125,3510.0213932500487,16226.125115873523,1721.0413703054865,1334.6905609195894,280.69693373640087,2164.9369940187808,3650.5629712848354,16177.380427743261,1738.6285590974628,1336.5863803539123,265.40547396971033,2089.637438638621,3546.272624593668,16480.60965151211,1739.013807003761,1331.733336234525,283.9800290873429,2186.7956689593307,3472.084702912922,16356.318563515559,1729.5076672639968,1335.2622967800062,260.02841372018366,2120.149437372091,3532.3899774740325,16463.30389881121,1734.3501631870158,1319.513377061903,267.1096444493092,2121.6571026648335,3450.623110694623,16362.252357318079,1737.8352673238353,1342.0270160836376,281.20030109156437,2102.106738741992,3539.3833906517734,16281.407127105775,1742.0186415839935,1322.6679126740867,254.04784744478434,2212.9533525973516,3339.3854602478186,16470.813456612377,1731.21078143315,1349.3662833791307,271.98811375076815,2084.576242542524,3338.9342623288076,16396.631674263383,1731.59181072662,1335.9750566393916,276.24843645886466,2281.0735890667447,3451.6539207281253,16301.852962681367,1729.5218170119822,1328.6778688310694,277.2525814104591,2067.417113159918,3566.433913147778,16419.641078551038,1728.3715790559193,1324.050685032599,274.24800908545
2172.0,3424.0,16512.0,1732.0,1322.0,267.0,2268.6239344555706,3489.7829756059637,16664.396750653203,1724.2005280227654,1311.6925034495607,260.4822946873463,2214.448190753382,3554.484108053078,16671.777693712018,1747.8275279000134,1323.8917293082063,279.7686272821656,1980.749160021906,3498.566048364229,16471.444513043643,1735.5691135819247,1320.7718834693162,255.09445508524163,2173.7225170349343,3378.245891703942,16429.150211597098,1733.7108369289485,1335.213823729769,285.4499670442781,2204.0226723372853,3423.1951953812218,16618.991493774658,1734.3888554022458,1320.499762448379,263.9769601618464,2120.078755462952,3539.312832723557,16598.617804288224,1723.380187640044,1333.6981458326168,281.6496031497771,2167.2069950798036,3302.700547124164,16547.18826885771,1739.9947410652605,1301.3589455097965,273.02902832726215,2145.7005519602044,3305.5147095563266,16614.07242142884,1736.722383529592,1298.9468886772256,257.0320711110769,2098.5484181583925,3463.9094545319545,16297.379990479045,1732.0369561638743,1337.2531212407414,252.0098243270157,2170.215804638091,3396.9625574586244,16685.883770417917,1742.440556954185,1321.0144075657076,281.07356355369797,2302.1630002463735,3367.2837688746413,16492.63277809188,1750.1922402800656,1317.5991579880022,256.1873490295958
2184.0,3520.0,16324.0,1748.0,1349.0,286.0,2246.674734496579,3628.1914463976236,16274.750058173198,1746.1437549584812,1350.4402477631138,288.1200496195633,2101.6745043128963,3391.4963293322353,16236.730710605543,1748.7120336387075,1343.066043326091,275.0564534883031,2195.772020748443,3406.020613590004,16307.625411723979,1749.1651017305117,1359.2814179082002,286.6958212265674,2313.1769355652605,3454.524860892639,16257.115996302406,1736.5522758042182,1345.3313804804263,277.33921362503435,2296.8447010949744,3496.547367841997,16461.61558167028,1743.1987017292518,1358.075275641263,291.40559848544365,2030.918998997406,3535.1336169231204,16242.001096205915,1754.0962968665785,1355.090653558812,291.8381906714639,2022.7052547276771,3508.082056036903,16278.41385940545,1760.833945922652,1359.6504230769542,293.5969637346409,1948.9301584953494,3529.7260650756407,16386.232705713508,1754.0277915574177,1329.6572014118644,279.5588062613713,2230.773657739285,3592.0067243180647,16351.80408464549,1742.2587733934813,1362.8528416224021,291.8671070307371,2169.551068135992,3632.532949872461,16345.756008815899,1748.7307042936716,1355.7419569394938,291.8087344312478,2139.1503314794745,3511.136563690623,16281.424776659875,1764.7651898354668,1339.9713176441546,287.6726823951358
2156.0,3476.0,16396.0,1753.0,1334.0,257.0,2253.283399947687,3481.978864320584,16548.194482986262,1759.5278820630876,1334.2709771845864,241.41344434970966,2273.5518004998003,3475.0912232748915,16547.809027814477,1756.4786812577179,1344.5523208384873,253.7200037373355,2272.0451952483386,3660.427681086232,16495.10149616564,1746.6348594226063,1328.8471499711945,257.9857157875999,2306.3414538957695,3513.163783968096,16331.458493263317,1756.8555799733688,1317.8996544568554,269.55541926725283,2193.514858840573,3435.632020995062,16343.594908681014,1756.9323232995418,1346.2863494206977,266.3420455879319,2013.4300369736284,3311.7524917580336,16329.072877817003,1756.2996950850861,1330.6887959206988,257.11609411068247,2119.715562354588,3530.322508481066,16412.505223802866,1754.882412786747,1332.64285152696,243.416455240514,2224.7878089312253,3614.1471528559528,16247.266307910766,1763.7442951551805,1329.1496721300243,273.6914247755634,2158.7756469516353,3657.1665638416785,16303.229205235115,1758.9067674009614,1337.0701656987903,265.7672554602572,2111.2999463929045,3376.0753173924377,16330.257622190526,1777.528482616855,1343.871523047361,245.10302110522065,2276.7058363005353,3646.232433628449,16321.486786518857,1767.125922983704,1311.4151696784556,258.6584270907181
2068.0,3428.0,16472.0,1767.0,1360.0,265.0,2239.17408251489,3472.869619091908,16518.85322270176,1766.490472460995,1363.1433340371595,256.2128426030079,1954.7317497360725,3517.8629794307594,16440.551079464272,1771.364795830402,1356.5820957666726,266.76296732223926,1846.4636284726664,3521.5509177642134,16430.664116017488,1764.1600653459834,1354.1808338137898,273.05514648060364,2193.3915543750277,3519.0605358092917,16390.127775733203,1777.3618277288215,1356.6016765227175,268.8705839877347,2153.624267307854,3340.9479484821795,16319.155866738301,1757.9514457533553,1356.1026727639664,276.03811071113137,2024.0200570105392,3436.9041778390956,16544.88406528517,1773.5811389065957,1357.0454321534676,270.65998472977464,2055.401892357235,3283.496556342751,16332.429326845302,1764.8164518547248,1353.0565725792178,264.32237520560165,2104.69828179472,3527.2369730021255,16518.130098064063,1781.6543523383718,1348.895481854991,269.9407313245364,2075.2471115140434,3478.0498058693775,16402.619844980134,1757.3035218060154,1358.9827328863237,251.09166493817975,2168.5053730018753,3228.567244164737,16665.48167286481,1770.4898973701468,1352.1113186911332,268.6541594391249,1934.2095909832537,3406.329575021281,16531.974518572613,1771.7666389358326,1365.252141940641,256.7801907987122
2140.0,3512.0,16260.0,1806.0,1325.0,285.0,2118.279062084989,3337.8133175085013,16183.601899190031,1823.3160416084572,1336.4343834064262,278.3988600371461,2071.355188384514,3529.1070607371194,16151.882864412128,1786.4891426865884,1337.9048305609253,291.0939666062779,2050.1717629508053,3552.3605503803565,16249.125491734352,1800.924954969832,1323.8906956688902,273.991896066882,2059.6260005004897,3557.349945726109,16392.78774264233,1793.9872915418368,1327.166300457506,282.4063232189062,2292.4528223937004,3539.7232223263545,16305.618377913353,1800.180734371151,1310.3232188833383,276.8209529739475,2320.0328460911,3534.908025783776,16455.780278363934,1797.9948038553414,1335.7993722441754,278.89813438150884,2148.7091933574266,3577.6952838155403,16216.101967174929,1811.128623545739,1320.6635557075465,284.44833832601927,2005.4055703029378,3534.0134333550322,16312.159944155193,1803.7920512655178,1334.0869780133007,285.1491566005886,2125.3808159327705,3489.1917886488704,16426.372503859187,1796.0580001544317,1315.5020486591704,275.4941363227506,2246.954918718471,3640.70240032197,16266.239511373353,1786.4135443109733,1335.0127467287282,286.1704368173734,2232.307734098363,3549.9644049541457,16327.4456322857,1807.1709591918043,1337.6855699503342,285.58578512478874
2124.0,3476.0,16452.0,1715.0,1310.0,261.0,2162.524725741619,3307.4348709944747,16308.326987269254,1702.7009188934812,1314.2579220142143,274.7330409663741,2177.7979990311856,3275.31505658925,16398.875179694787,1701.006861744238,1308.8600066560666,257.6890643244198,2160.9205941857463,3625.3646710088524,16492.43328671071,1714.962744096792,1291.1618281661238,270.65763420745543,2102.4566958459895,3366.555131751427,16408.127002105964,1714.8317198131488,1314.0919516758297,265.0499124593228,2113.119390009349,3400.022972573248,16443.435733144484,1730.2076774679624,1309.4015242024736,271.7885470999127,2310.7812899780392,3446.436316499617,16478.945641080525,1721.46242494457,1310.388347134913,254.66695973672324,2204.0901689912225,3363.4933771263813,16487.659136907554,1705.5803972562942,1317.3766885312928,262.09371550716,2122.8629400914942,3370.343935920559,16515.87654627324,1711.2551070985596,1307.4169692099672,258.5910487040667,2308.4553842828286,3553.4134922984936,16545.000853778212,1705.0195844158918,1326.5810843959578,263.4139731145362,2007.1450827872902,3484.6160463901383,16626.41309158294,1730.5192751513875,1301.1375478895604,251.54052176127232,2120.852100374827,3445.403862055049,16565.675680239605,1694.0694960125672,1304.6367417614272,259.9260949956073
2068.0,3384.0,16644.0,1859.0,1374.0,312.0,2163.8170964481906,3384.7283773708227,16632.868352757625,1858.4441518106855,1353.2834477425554,321.9959533601648,2014.3286420689305,3277.983454630361,16577.65496799794,1865.9543005824814,1375.7241936304686,298.8549215375084,2001.8632169502857,3385.3465703074085,16652.819798397748,1849.2750918447593,1369.3504299555204,316.35012713421537,2058.829025842241,3364.9566162025158,16605.997229483797,1861.666443389749,1374.8747773072137,325.21546558989405,2100.8776312605537,3348.036569235213,16862.375718240277,1833.8316102127521,1377.9567559010789,319.73995475032467,2010.109435401495,3546.512142692693,16656.785604566092,1851.2864742757968,1376.1636953985703,317.0553072318275,2259.451300764624,3480.0416128761763,16588.37496125244,1865.243323016105,1390.5435208471913,320.768370603997,1892.6911987585527,3418.6769935038037,16749.05978433915,1865.9421848717768,1392.632261286271,304.77394230560265,2064.957604540829,3329.289391995382,16805.807999159395,1862.577689212855,1381.6379217078688,311.44334625653346,1883.7953649030246,3324.230357956756,16692.714757543818,1855.8709182751345,1374.077509359626,330.0293496123808,1938.639517433498,3338.762188445018,16738.033474840788,1844.190167559273,1375.17563521568,289.5670542069225
2164.0,3408.0,16464.0,1701.0,1344.0,244.0,2203.3325246641143,3275.4484799667357,16507.74779408509,1703.922052791218,1349.5628986466327,252.51830770167487,2199.7158072239395,3449.688422372848,16349.041362792976,1703.8538941687407,1360.048205401931,243.35618837357367,2174.066014773828,3564.992769582154,16343.385152036724,1701.1818274119832,1350.5819784544674,254.98792093334336,2311.0764544879194,3383.5998280839726,16490.649429673453,1702.6811555198965,1335.9830599640247,230.66179659670485,2183.570742929629,3555.4812932750347,16418.717888849915,1700.3521395873902,1353.3905556987497,237.46846620030416,2294.8248601029386,3450.3056810413395,16356.232213280426,1692.255014558192,1336.758639264105,239.86755541833926,2290.04691059089,3454.013564387716,16461.48858643675,1687.6333970558583,1349.8711608095396,242.73262631860223,2198.2483333770474,3387.511440277306,16470.04721960202,1701.6176727678362,1335.3409673919823,240.2912828050154,1966.7890676142695,3473.3024336979993,16419.245801687008,1708.9510246087577,1340.2229082131746,228.68979527341298,2376.9742077148285,3309.9891186095674,16515.939930624067,1708.7046716091745,1334.9069674566917,249.72010710070145,2000.512757356846,3596.9644915951367,16491.653504146285,1722.2752957533335,1352.7345916812203,249.27671235182362
2168.0,3444.0,16508.0,1770.0,1394.0,314.0,2151.3180102103724,3312.053440867659,16491.452611238274,1774.938141699647,1388.4252771920617,316.06694714596335,2404.8557891708665,3504.9446162066783,16580.35521621002,1783.520313493621,1394.017656001458,313.8497261194565,2236.6734936864996,3325.9840646367657,16417.79039780737,1761.6453722448512,1391.4752535752475,312.7455065015693,2275.3093996242706,3360.004765363792,16503.87724354149,1759.9578675900464,1393.690838836017,325.62104142104334,2066.0506240398827,3338.5033891661633,16457.811477094303,1767.0955632959979,1413.0730190252575,326.69980453084025,2170.4534571923837,3411.864356042477,16523.01738844395,1754.2640703470988,1392.1524710711706,336.03306349414987,2020.3756093829566,3304.166469007515,16379.144829107903,1771.3517590499512,1418.6465373807985,299.38357682842997,1939.9705873369007,3666.22576067884,16586.216052107902,1764.4312388671947,1410.113544023811,307.41450241081884,2248.481036487887,3409.3611922011696,16635.862926494636,1768.5086477828795,1398.8434465978269,292.59374696250734,2106.8004579066856,3410.3997795944115,16529.41067314507,1763.9993573147324,1376.4400513418377,318.5721657421732,2191.5096875868944,3496.8872302943805,16442.725895280393,1773.0039714630395,1394.960261580043,330.1144053287511
2224.0,3444.0,16536.0,1738.0,1347.0,276.0,2277.8614501095662,3333.480773496864,16526.51041983017,1756.7573612195463,1345.6123598428896,266.5725442848213,2226.421376184185,3286.0212570242943,16555.737633083045,1743.5372501369332,1351.0315004061183,273.9241401721192,2104.256012101493,3426.546642120908,16787.79625345032,1748.0647152455267,1357.419805204196,279.64508617577985,2095.5882169273987,3342.4329191403162,16645.912032846227,1747.590417692669,1355.887255038641,275.10468284091155,2124.378950349369,3520.070688767312,16521.027238317012,1752.3181366554181,1340.2317265136621,274.6419490351155,2202.9845994500556,3593.49502137767,16506.35767952464,1742.4629336837834,1332.29816650353,277.2766446238371,2198.6740156242176,3588.1311620213864,16461.862217823804,1745.0094134039189,1342.3255467585832,277.22771836567733,2286.8567738247402,3519.9379825826722,16483.318352075985,1720.2756067668288,1353.1835124554414,280.85332181237754,2277.085511792162,3327.847969293676,16538.1495943265,1725.9632872698967,1346.2779067985255,282.74292092841307,2188.77810282995,3318.2669729176773,16511.68807524123,1743.8050970011861,1355.0780649442536,269.4389409605058,2134.612332447289,3406.516598163747,16557.52653761164,1736.8544994062106,1330.6555294700113,281.96369673494115
2216.0,3356.0,16540.0,1761.0,1357.0,252.0,2280.2662533909665,3369.347857589908,16749.274077081536,1774.4942546873117,1359.8790934765116,230.50653445120642,2191.1984687514023,3305.1347182433356,16635.32095421313,1741.266598958059,1359.6016061153146,252.32123617748576,2192.5444912654607,3292.60728278684,16541.00479620292,1764.1092813351606,1352.6958466207175,252.20362730439274,2218.1556586361385,3316.156096072146,16660.463676641015,1750.390541576331,1358.5778486000308,247.42302067916157,2242.507175699156,3128.3903943200385,16554.590087899865,1777.0488624235609,1364.21639234887,250.3415708982737,2347.04916084983,3239.251224119525,16439.045808272032,1773.2742072253086,1361.6393085850443,248.99555724070487,2118.0834811003733,3305.5970373989926,16634.94880666763,1771.1330166744908,1347.442263656084,256.5718052132986,1948.157744145091,3466.813616353742,16441.371238592477,1751.71838409325,1364.1753339168035,260.019029152399,2104.568414997971,3344.675436839369,16742.127436589868,1777.8267125425743,1359.734285642649,240.72782436193373,2346.6982629920767,3418.0961046665684,16420.77541153595,1768.5176361297956,1352.6858104019966,244.24647910250394,2234.8634581835186,3305.377867238684,16639.239165512983,1746.8040439485223,1353.4638045723104,267.85594693507966
2212.0,3424.0,16400.0,1742.0,1311.0,262.0,2217.0710084640214,3361.003999898703,16455.059860497273,1735.885916995746,1319.3149824989493,264.3531072583164,2030.4426457417337,3407.236100388499,16417.279648510314,1737.7417377904183,1323.5337480216988,247.12124563282978,2247.141799632207,3452.5533972061976,16384.27432205647,1751.5729448218692,1306.1912286529387,253.33229549233772,2289.2916179413332,3309.9330170177454,16591.621692729546,1745.9031745370166,1296.2121022713231,286.4904822414645,2309.2890322406247,3359.225770929833,16292.186104842072,1747.3352709514695,1311.0750343074328,273.35074872616667,2353.403640134743,3356.830441619174,16440.525662443102,1740.6723720811988,1312.0931122381226,252.15740312266263,2312.533635871688,3404.33808533616,16388.84465154568,1748.9885706497819,1335.9325508136735,252.60540099916022,2262.327776838971,3361.9422646332328,16463.82662705487,1732.2949184092186,1306.3804485271924,250.35248467593505,2174.074498210221,3330.888259103262,16423.4692765493,1741.9741162515365,1305.8887614810924,261.04569324215163,2205.7511037006866,3565.2312936680496,16501.482650763643,1725.1730723886049,1323.9904704544472,259.09419966651836,2396.7997226056236,3422.4502634214605,16603.103387511288,1732.2082468542185,1328.1137902950475,253.05356219440768
2188.0,2296.0,16152.0,804.0,1153.0,-34.0,2218.428188153479,2184.734471728851,16151.254162046062,815.3868339841011,1152.0214815142576,-37.93526808830748,2066.5599850269737,2244.220635910072,16219.096705794454,815.4414916283216,1170.0117940790035,-36.89607258408202,2275.8771841327207,2303.992445259608,16220.587777528466,793.9838486590231,1146.6985322119856,-29.184929024703724,2372.735559447563,2253.834858390485,16134.608654552409,792.458665886691,1176.5049385411662,-23.93022160752382,2343.3797693793663,2293.663429081805,16084.869319232781,805.5056296148709,1170.2690651660175,-21.720485070317714,2048.017569094561,2230.14809280283,16079.511694960096,798.099597846953,1167.3905923244665,-47.39129312843107,2188.5923664998377,2228.175266123037,16196.846524157869,808.3443996288555,1135.434772754965,-30.426139905702684,2300.848477489773,2300.2409154065303,16142.189064068507,805.6949832101487,1150.4026451116342,-33.18404004272963,2299.488710833368,2274.0468321899793,16257.758804802823,802.2826208704403,1152.5944827643978,-46.021432314830925,2285.4461782262256,2295.3949424868892,16104.031684383734,808.2950673973947,1123.0007219288768,-42.41910011988335,2316.9749880216677,2281.9184868808666,16088.662114048368,808.6075937723098,1154.052669055716,-36.15257873051841
2388.0,2404.0,15540.0,1967.0,1406.0,320.0,2237.9674585768767,2304.2285201602353,15566.96357921047,1977.5327097201446,1390.8236838322764,309.3712742349665,2223.128095486515,2397.353172408498,15367.992604634255,1968.730121110702,1411.4345193775075,324.90559006643775,2263.5369697744345,2323.797790104519,15569.060524285098,1953.438717110217,1392.5852386631357,312.2119597852951,2419.31229296816,2269.950675034227,15513.129291857107,1961.8904183849186,1419.009991084499,315.3742058891308,2450.8957413932,2340.589069311894,15363.068305373963,1974.0954181631032,1413.1782058628692,324.3544459663108,2174.9201032735828,2681.962418032289,15417.047362394365,1992.6123870215222,1404.5386561091261,316.2576604176572,2521.7664666724977,2457.793010981428,15617.092408169856,1951.2784096796604,1410.1258254828133,326.0872163511036,2310.50354110909,2569.935898972423,15806.319181405948,1990.849371149271,1421.942099275746,303.2919191718073,2337.295333695098,2687.1856144379854,15541.795801797605,1963.1863942129307,1396.7238559676134,311.5309272814065,2280.48449140199,2393.46461345787,15616.180921719846,1971.644180198053,1412.206290202798,315.86804713002874,2449.626785698903,2343.985452044011,15423.37246484964,1971.1985580626745,1405.067381460411,316.36638862190637
2148.0,3788.0,16848.0,1997.0,1522.0,371.0,2190.08483470928,3869.1738471079534,16976.209847049853,1993.7388300472699,1523.6661533925753,378.95391948005516,2124.683573232412,3905.7468912891773,16842.191004010067,1993.817219444934,1524.4235537243087,359.49430058329096,2219.0990532051565,3585.9629900503855,16785.9737636264,2000.813011753921,1519.911069678892,356.1625044358261,2097.121526841926,3761.3561131566817,17001.98920280756,1991.3127202201738,1543.7830483888772,370.5384991538798,2164.6451051731965,3748.402922588474,16718.870095708455,1998.9743909580427,1501.631081393253,374.69500083394075,2305.499988604806,3797.0917766005277,16989.924640541038,2032.5663461717118,1518.3075191068995,362.7020682273444,2159.195322787239,3700.5067483182866,16706.764900505605,1987.5705254903573,1526.0138163073157,387.3121529653817,2203.8819665342953,4020.587730309827,16965.13636856238,1981.3722175103917,1528.7665968284562,393.0902375038699,2373.3466772062206,3912.756062766453,16886.65350590084,2007.2513009503607,1521.4794965830295,351.32525815375135,1973.0747727217126,3732.689658360969,16707.041148754113,2001.1664426766363,1517.7306874192298,369.82434041785416,1941.0661508592775,3925.5611516248123,16800.702320484696,1976.6550015163461,1517.4098708053577,383.1410390848051
-7952.0,6672.0,19072.0,-6429.0,-4423.0,2910.0,-8086.173755379329,6509.769672647987,19218.519015695645,-6421.158660969633,-4424.095333708594,2913.1544940161652,-8040.36981026587,6796.119995765267,19162.289588783467,-6426.397575219433,-4425.436037189269,2901.8569115642763,-7897.45782610655,6674.088082425322,19070.062871434944,-6442.539544418818,-4422.408013202075,2899.214841082717,-8041.0342172025785,6681.583917151136,18942.281910638634,-6442.5486673271125,-4423.4961037524445,2907.6503026615483,-8010.302772591026,6611.180372738916,19079.54171374677,-6409.427849948941,-4414.654602988474,2899.7758859503638,-7971.243174867578,6742.794997323273,19071.441043299616,-6428.480446797479,-4421.77493669412,2907.8019102685566,-7897.780791654414,6629.589153868048,19097.50276175834,-6419.41855440478,-4429.999657801364,2923.6213899387512,-7918.943862586699,6806.6047191239295,19166.284924803032,-6422.941232000312,-4403.943105056535,2901.7529017017814,-7761.457466056885,6698.168184235523,19159.61311537008,-6432.263283337111,-4426.417154526999,2915.2786433650394,-7830.953889744433,6646.025614792677,18760.582609655907,-6432.5605573415205,-4421.370760060284,2909.5568228252487,-7951.899473139625,6682.888401070076,19040.781119102096,-6411.546471917843,-4409.450372564671,2921.203872135577
3236.0,6072.0,19248.0,-3569.0,-91.0,598.0,3071.0902381586156,5948.119334169351,19274.88896979355,-3564.7034270478357,-85.15772207475861,607.8097622818731,3268.071559252102,6082.273668892095,19396.914987370776,-3576.579116599652,-80.86498665228807,581.768244065235,3454.7182315310843,5991.122937661282,19113.372583187516,-3557.4343736075407,-102.23024657424214,602.9429467985777,3197.3051499997614,6177.6589183694605,18980.38892097309,-3583.518600238093,-86.00545084999189,602.6231614503408,2982.35790804217,6051.757543236593,19131.684315230217,-3560.773494208411,-86.43630245869166,606.2333912277711,3211.997797236456,6086.01904048927,19460.729865819463,-3579.651734069301,-71.64554709631356,587.9740371219461,3276.061114879509,6018.1478623058465,19235.817131589756,-3555.472461251318,-85.52951209115402,600.922707307994,3204.2262937500036,5985.301051931579,19282.881691260714,-3569.3776984609576,-104.57122135860769,605.445785989849,3325.8934428090784,6018.169045986652,19305.639706961058,-3553.5648246792125,-96.24932055162736,606.0326860685228,3237.31359977755,6017.736780685209,19145.133569847207,-3568.1447008878977,-103.26252953640768,572.6046033097612,3368.820418066651,6052.33221837051,19013.102328085202,-3557.856226787352,-85.83161802326636,578.5415857669392
2756.0,10564.0,15776.0,-4897.0,1016.0,2447.0,2805.914926737483,10579.861591343259,15544.148336161814,-4883.544311105346,1022.4756277928072,2453.073954716967,2791.1712648368284,10510.476214307575,15660.915144788325,-4879.776353815533,1022.7313117652208,2449.3212844297864,2787.6000676646204,10412.677591912407,15715.608867060346,-4883.617426001533,1022.5306925770734,2442.3408472371357,2717.0868082234288,10457.59211421594,15869.909969968263,-4896.502713381057,1020.9231468015156,2448.2123003280312,2710.874666902487,10598.298544956913,15731.534639894327,-4897.6802749095,1021.1173346749044,2460.0886420332727,2657.562941131405,10503.937455205065,15732.266300539934,-4907.946832578987,1038.5214937045484,2445.596044316086,2793.7604791466592,10618.886272326166,15855.050943094539,-4891.791311482063,1013.5435473122695,2455.5339231177873,2816.5089668729397,10550.178103625942,15882.017198813419,-4885.017462437257,1018.5565359649825,2438.1628929220183,2722.2375619938907,10488.256606971312,15718.9186875099,-4895.212438904598,1015.3516977093433,2441.9960005055996,2679.659997762593,10548.65709017509,15684.526326026315,-4893.543516493526,1022.4039025815958,2449.7373640934297,2691.320001022711,10512.616707100957,15741.738030774317,-4888.9288338630495,1019.3980756364899,2454.7064514505737
1672.0,10196.0,15752.0,-7278.0,2907.0,13211.0,1700.5052554447418,10043.897942346397,15757.82423248376,-7281.913421369496,2917.562373409037,13220.143575902519,1820.849661011257,10225.748464548144,15798.955549339842,-7265.291966902665,2912.074414492973,13202.699962975807,1636.2078812545953,10066.584964192627,15894.715850384295,-7284.127332201675,2881.398808265431,13202.793142848355,1766.465022564819,10109.09427174437,15752.927155802552,-7279.162062838572,2894.155539554832,13217.609097923396,1719.108684794066,10166.123210260119,15718.697055995459,-7271.935424610643,2897.1286357578915,13189.44812573253,1797.4203275206366,10302.747173299884,15862.676047529818,-7277.002170226259,2906.047739988782,13203.590730060732,1559.2348138487541,10241.93709418049,15848.409358468502,-7277.804982811405,2911.0263489761937,13200.021005209466,1559.411538615331,10319.48524384476,15686.51646985375,-7281.810963723733,2912.0972949288303,13192.644430743137,1665.1402725238538,9960.391462850324,15735.004584531092,-7278.978645046057,2892.516668822411,13218.989567797713,1662.066109203659,10246.984961203683,15745.095557328741,-7272.034254498403,2908.0127337848526,13223.021100222784,1546.7543378750076,10040.042144791492,15795.555423187574,-7288.56518610784,2893.3918853118607,13208.081410477596
7960.0,1532.0,9816.0,-501.0,2876.0,13134.0,8051.730342384081,1618.07931849994,9905.650497858656,-517.4127693694941,2867.978963849631,13134.127616131764,7852.17214106264,1512.8904731121581,9774.064776746985,-514.6315467509874,2867.422028910464,13145.076373281176,8174.647665884416,1488.6119548791366,9637.371299124537,-496.44714112395366,2872.2407470349594,13127.679176706723,7829.48150119751,1456.8589337787548,9894.08625405303,-519.1329051166996,2869.1142045454294,13120.060386555862,8056.470129184599,1482.834674604168,9882.516368900526,-516.00766336265,2861.081009903309,13133.878701117117,8063.721342525102,1587.5353439581459,9841.923887579222,-515.3874270374095,2872.491284272764,13122.721323122858,8046.062053427542,1457.2096195878762,9865.79312026115,-510.22852896955004,2858.1835947874606,13133.492608013474,7904.3025204915,1540.158057662495,9774.683194002831,-510.19790173180627,2869.7161929205063,13129.290644301773,8031.5632469613165,1527.1123786673315,9655.698749195575,-489.1106026048773,2878.610853510174,13136.82467775183,7951.413924399999,1592.036032910879,10050.638983778512,-518.9354073011403,2877.1141827591046,13139.826320455655,7817.282677192971,1602.528384153399,10004.44417446676,-505.29414266474294,2878.0134155859178,13135.000990032897
920.0,-2316.0,14864.0,-4287.0,1224.0,14215.0,925.9517505896868,-2429.101705576466,14918.149408648835,-4293.431038127347,1217.3758531828742,14208.495727736416,1062.7815597212066,-2229.0177025131625,14945.655248595334,-4303.133626045904,1222.0047182501594,14214.693490578507,926.0112865225719,-2390.3926028942424,14993.429195861383,-4282.491055936869,1245.1791813459906,14202.072189131744,900.4190882159329,-2188.3166619811727,14831.30029279315,-4300.778876043063,1219.2250328785744,14214.454923723399,839.706691455203,-2236.871236024691,14874.971036950503,-4260.658717139826,1221.7450646614545,14235.293615373283,896.5035741448688,-2352.5037003408515,14796.580761341605,-4276.793736551764,1213.7044818758943,14228.493471864605,934.1298871004601,-2244.8745473579247,14850.985280186855,-4290.617288730885,1221.1853702987548,14218.560905291726,870.8448833419226,-2174.1818097635087,14663.101784208631,-4277.469453811657,1216.4698529916852,14206.13920873404,1038.2823619149253,-2267.567336034074,14736.21721741628,-4289.282140222527,1225.1841112611537,14217.04770817119,992.8662093481105,-2208.409330143365,14960.160484792767,-4294.428047636379,1228.430448092055,14200.648561625543,910.8015553119307,-2057.370881726589,14874.414152956693,-4282.347777559281,1221.6872603009351,14210.469821523235
1280.0,-10708.0,13764.0,1321.0,2178.0,6819.0,1403.6159454729875,-10629.00539195202,13824.40555317067,1328.875486436201,2182.887012796466,6824.734294698399,1353.7129674501373,-10536.242283243952,13783.357441022614,1307.5234684542067,2168.6970849879267,6830.280447874964,1389.184199432359,-10836.629608427222,13759.729871051944,1322.1881140342532,2166.7709990805097,6840.7957717810195,1340.6319223714459,-10465.314717148103,13841.91060691786,1312.469709043322,2165.64157691057,6817.497568672809,1278.1254119303999,-10660.470844410667,13725.992325310619,1298.0645476947686,2182.0304828754934,6829.846060138452,1420.0922396360547,-10598.340310505651,13830.679217589777,1322.7942260557963,2176.376305904236,6820.704575401432,1253.3987350545228,-10707.638802087871,13609.215004710886,1328.61655301348,2175.758866240505,6828.13795493648,1222.360220377937,-10724.839001003158,13796.671224585058,1300.879194522427,2191.776862272429,6830.758529590483,1304.9798195268309,-10558.738774509347,13556.274256052164,1308.2800211911058,2169.7082189742205,6815.091757524417,1113.1813511823511,-10707.620598047519,13624.534252508018,1348.3943050679882,2171.9869676130174,6830.01087568105,1406.1285670968095,-10565.461759648764,14075.235842405946,1308.8088309142267,2179.37576865185,6813.392208549422
-1136.0,-16520.0,20864.0,5484.0,183.0,-6533.0,-1315.7353993135202,-16614.93310479518,21001.61601753676,5487.232291946292,192.72111545785287,-6530.524544957625,-1114.4046971997761,-16561.047380854656,20922.55811658246,5489.301434135788,204.151678724054,-6531.115321443791,-1134.6290446396845,-16358.393729164794,21012.613585213356,5480.584058602924,189.88922861941788,-6533.210037661998,-1127.20475394038,-16717.25629611501,20810.23160291399,5476.401688990606,192.09321509518603,-6516.55286400509,-1140.8810946824747,-16651.478517865893,20808.71457531029,5501.417932693024,193.35423251566914,-6523.996850821902,-1151.5154755892909,-16679.9707907235,20749.423353512855,5466.229686089714,203.81228606861532,-6536.960138897306,-1189.0827410258066,-16445.706427760062,20782.534224722865,5475.837287840693,199.90741250539074,-6540.59821645144,-1018.3433526921011,-16414.923611351383,21033.536386555563,5488.784540258883,180.08583579731254,-6534.324120558538,-1202.1170115808256,-16332.984280646553,20837.556590301137,5496.891122528708,175.48418142576395,-6517.660715872991,-1286.2060488798174,-16705.86349559375,20905.95209184945,5499.341614010857,198.21333178450942,-6535.842458908611,-1220.9325992303166,-16624.84826666932,20964.805886607384,5486.831721287395,183.77583198883627,-6532.287049384016
-5336.0,-14428.0,21904.0,4506.0,2321.0,-26234.0,-5356.451090335344,-14308.836379655691,22071.323589465537,4516.181001095028,2329.432862076531,-26246.31733702502,-5227.902969931346,-14410.97845622004,21920.354790341207,4492.9819285291,2338.836468956947,-26229.116749717854,-5225.795119134362,-14430.971743674156,21658.107973792332,4499.007307838416,2316.4414671532218,-26235.567102747795,-5117.186923028601,-14264.798056544261,21830.737785913345,4507.206616274938,2316.044779684058,-26227.696975089726,-5439.720481992274,-14355.511197697662,22034.137759342422,4519.974077017301,2339.307683012734,-26228.785952016406,-5101.03664371176,-14443.578427964918,21868.946211381917,4489.331079914856,2317.4275464018965,-26236.09901860479,-5229.4826474392885,-14374.649837468556,21963.508717364602,4506.126534947824,2313.867114005118,-26243.78189632488,-5432.30471510706,-14547.085126836735,22139.448719167296,4486.961762653488,2309.0050204330078,-26235.40659094546,-5264.525596680095,-14518.13796245353,21929.0045081017,4515.285342838145,2329.040452720443,-26228.36946482447,-5269.39350232502,-14447.533380704472,21784.517119470976,4505.855942816383,2323.7678613356766,-26236.64679875284,-5365.659270708757,-14367.345017433026,21917.44681579348,4504.16422244072,2318.2837107550235,-26229.705159174027
4420.0,7360.0,10172.0,-334.0,-6381.0,-28103.0,4329.836754609679,7339.529004569509,9949.379292516203,-338.38192712829834,-6384.8383504377725,-28116.744017018424,4456.571414389795,7325.732857820991,10200.139290139918,-324.3166629378817,-6363.514439890309,-28122.777662674696,4499.545715851581,7360.235886521086,10119.955292568038,-324.2284913496502,-6375.302398474209,-28086.802636067292,4564.867863558696,7357.533321333756,10314.275655598542,-347.80929026425923,-6358.423058570946,-28103.03448509725,4570.438423413683,7284.781380131764,10041.19490264801,-336.6969897938181,-6388.07800362379,-28110.154417643756,4393.699963845801,7239.364353682048,10306.248432068907,-344.39027520431426,-6378.0479754135,-28092.097921057906,4563.315473252053,7469.369005415758,10179.25896403211,-328.6006825903831,-6383.581112583241,-28099.889211152145,4431.124122235672,7464.563846909085,10329.97720622758,-321.2700377667203,-6383.242970453479,-28099.067077540403,4366.200690286283,7363.984529199004,10250.918501709777,-339.21875358459084,-6358.670034948851,-28104.5103216642,4285.6993337826325,7384.698125551889,10241.364794121268,-325.4855796117145,-6395.121698615557,-28113.43309541812,4327.7872486541155,7275.083621943922,10147.054645692067,-338.6116082616025,-6366.95657538037,-28092.6402974484
-324.0,22396.0,8876.0,3131.0,2564.0,4712.0,-318.22244527105795,22422.356379769295,8814.43611678859,3136.334033678814,2560.200505248431,4725.750847366033,-195.08013775294378,22297.54517602661,8809.009349623959,3155.126754289297,2563.471558474357,4715.966717922466,-216.85782185778095,22398.699374967615,9032.632884463,3114.6294906514545,2572.121593384179,4715.831181766646,-259.1483374163101,22438.878587996864,8817.757209487854,3128.6721935350065,2568.508461624617,4709.616702202635,-379.0525145118039,22371.238326781517,8884.481026409874,3125.6726389231367,2567.0863530568013,4697.903266098213,-410.42767341381807,22347.86001507776,8914.569863997396,3122.6161118009904,2554.6208060443087,4718.057513454863,-325.4917919729575,22486.879987551227,8761.152882023582,3133.4740499263066,2553.4985705168233,4713.433436686257,-300.70734362386554,22229.48930354215,9064.53574602358,3139.486014987435,2554.748373446228,4714.169123926941,-451.97338835844175,22385.221035587692,8849.367067145175,3129.0969987001263,2567.8866719491257,4711.323692637009,-254.60146273455885,22447.358863487018,8819.814762907446,3130.420844161593,2560.8131254929194,4690.418530162976,-228.10112224197792,22302.63548379621,8867.390384044667,3127.0931894865494,2570.731175211261,4730.631086948893
-1920.0,-2956.0,15252.0,2264.0,3686.0,8104.0,-1827.3364681498165,-2982.2715549320615,15146.42125121217,2265.232749356046,3681.1849822996546,8115.98174567616,-2021.8271055570422,-2913.2619622833495,15365.784144745243,2247.0638675912533,3679.06967884813,8091.156099471856,-1909.5819990367925,-2823.077729332591,15039.89939466819,2275.756017434286,3681.32022597728,8090.09181963063,-1796.4990004927565,-2861.8875798758295,15258.436277177821,2270.169470970941,3676.8822605290347,8103.386192593965,-1749.85224035602,-3028.293952084507,15116.82947831767,2247.194070130445,3700.1265425560664,8097.105656726562,-1831.9611928559566,-3096.3292846273976,15185.282602661093,2248.80515068827,3690.411336391271,8106.776193764365,-1896.1741532182339,-3123.774581205206,15278.252750193455,2272.0668154199784,3667.187052863368,8098.279674833178,-1910.5469611422288,-2945.903036717371,15103.727821162869,2265.8053013664507,3700.412849632809,8118.255077136216,-1920.3851551883208,-2734.6189532260482,15160.476581473114,2281.25065345487,3689.5008346932095,8093.981750497947,-1866.2473669791445,-2770.7593216135247,15230.038579672819,2250.1179694418797,3702.7804126138635,8110.55650784384,-1764.1926289627743,-3076.528965170024,15181.690159398326,2270.5373604570523,3695.3709002605174,8103.97304493102
32.0,5312.0,22604.0,-5550.0,-1345.0,3481.0,53.16922718974587,5302.742917780907,22688.06544161748,-5561.667050279242,-1346.0624600324654,3480.143169840888,47.451064069824334,5209.153047509184,22536.921764016355,-5543.292584988579,-1328.197455874585,3489.8864293280603,23.873706626188678,5542.941864463854,22445.178625492365,-5553.954019498338,-1337.9195204875473,3472.9476889924954,73.77283411276773,5220.55749079575,22476.614962500385,-5561.8625496803825,-1353.1246673999954,3474.136228848603,113.00796534555319,5218.0362461710865,22671.97831475563,-5548.7607423317195,-1345.5819105760697,3464.017000806919,215.51402507881036,5413.341054699216,22669.984297972314,-5554.636051016337,-1341.7254724746092,3497.475078988603,70.10202989623696,5457.522806982301,22522.95534748082,-5551.798062726016,-1353.8635771917925,3476.9502111611678,40.89597867897678,5149.662451443816,22619.18595603483,-5553.387448837473,-1355.5702575094183,3482.4415262658013,52.8261831911693,5466.545638768885,22414.79777750703,-5549.902889046652,-1359.27907695823,3485.4405560085293,41.54204675349093,5223.821931703698,22443.578996511817,-5563.0409719556,-1348.5237800797313,3475.3911894399016,-94.453182010079,5351.806325634089,22419.817608547994,-5552.722864578382,-1359.5965982665048,3503.618407653035
5820.0,6576.0,14588.0,-4519.0,-1228.0,6440.0,5895.426113529843,6507.1955014161485,14486.21363589941,-4510.858783194594,-1222.7172911050607,6446.010598021877,5818.869893662784,6517.095782442005,14439.23977993052,-4521.396470033003,-1235.7394927963223,6415.356946771482,5965.022719613655,6592.843031717491,14507.799190152304,-4518.811414376711,-1248.061990642949,6442.761208742413,5838.97556142445,6610.712848689278,14605.742038075956,-4507.608815573243,-1253.5558096345374,6448.450886063947,5738.001684221467,6577.8544791181275,14606.21027031994,-4530.489583046106,-1230.4845567793539,6452.316589346121,5738.029790967171,6588.7677514869165,14673.896289134174,-4508.801089398879,-1248.5844970332917,6446.728721041125,5719.996367040777,6656.066269646976,14575.953703216996,-4520.029819354785,-1232.7454193056262,6438.1175974060225,5877.1252189903025,6634.568117179714,14688.337202614135,-4515.218205838612,-1234.5131257131143,6439.652396292781,5901.204001643517,6479.483932422703,14500.580593488834,-4515.849397177506,-1215.8503353327421,6427.009589204361,5718.215759376097,6648.056691723228,14542.100244908355,-4513.831734138429,-1247.6145950928542,6458.812648963551,5978.132628735018,6593.944946651949,14455.610547343245,-4536.882352217585,-1223.4558372994347,6454.868253178505
6928.0,5776.0,14772.0,1907.0,2809.0,12267.0,6760.593694756596,5720.078600763834,14986.70395342471,1911.802782325432,2816.046120352485,12275.830360254007,6907.836116752761,5588.676276059575,14771.284764581442,1905.7276585611673,2796.2511122594838,12241.466994135862,6918.315202181714,5797.584265846025,14792.807868807375,1898.5792125180078,2821.6106442278315,12274.531866832247,6970.081690904571,5813.622488966072,14801.907167910416,1907.9358498526383,2806.4569671246063,12268.373890761179,6712.370387228739,5756.284309713545,14623.595115622078,1899.6392999464776,2808.1386121137484,12259.932842247168,6885.158324894278,5843.369570292885,14753.98285198406,1914.6909634857118,2821.8205089273183,12261.41452633421,6959.842188243512,5987.363585311298,14819.128216337313,1938.3558712191996,2805.8261794745063,12264.343847653909,6908.47270819494,5991.5878032680985,14809.269649196825,1890.4179680313598,2815.702289425547,12244.497537259233,7022.353691632521,5753.972536071362,14947.723370492819,1914.8392273743812,2817.5591727971337,12279.334697169277,6959.819043003057,5821.957393424201,14736.780460769369,1912.4159343428644,2812.303641052441,12263.984832105025,7070.958921959439,5855.96617774703,14691.290516399516,1896.8351951856869,2817.705371751579,12256.404019449536
3328.0,-2236.0,28732.0,3096.0,3105.0,16608.0,3319.8973489216087,-2271.238091789764,28724.294005086686,3110.2230054927945,3106.1096073529243,16600.861321189746,3365.7848909303216,-2180.1060565872676,28682.62653842625,3109.8993429831503,3117.1417193368884,16603.718046286893,3307.2651508570716,-2130.218301411515,28720.077586949996,3099.319678161973,3095.3730271755485,16607.475871044964,3174.211865769709,-2198.5436345870107,28837.256861743896,3080.8710529873797,3091.9254689785057,16598.866069120184,3301.918487742785,-2249.2860595774414,28534.633323308888,3108.5858709272748,3093.511140587145,16623.841769650895,3230.944140549657,-2096.8451477180715,28721.56461691693,3103.0985868573675,3117.200915744576,16627.256129516703,3173.983634510767,-2233.66513811126,28773.353240687487,3091.9769566344567,3102.4501215482233,16618.459542306286,3343.9671942346945,-2101.0889540030066,28875.637134122964,3108.708950523219,3093.2672692818355,16617.49933464292,3377.3709317866583,-2386.7106672510745,28728.49275715656,3100.07188371667,3104.655390043064,16615.83649452769,3410.197459484062,-2309.7434036901,28718.435959674418,3105.130588163089,3106.0934832780035,16609.36649582927,3315.6809118351607,-2316.635855786412,28726.111553589297,3107.9029889187027,3101.7019854700698,16610.49826256912
2428.0,-12208.0,17568.0,5520.0,2591.0,10987.0,2469.763801317058,-12176.509770988278,17374.814412982087,5515.244373949179,2597.187068586246,10984.207844511366,2314.7363257805546,-12246.35854989267,17604.772378741243,5527.180405678006,2579.1422316911485,10977.090785352128,2495.969088462871,-12197.378787031901,17665.013299938037,5516.357861991416,2601.7367029569514,10987.536764298638,2488.5165193003,-12123.967729534057,17550.3329345677,5510.5947309238,2586.244172036381,10982.32919567877,2393.7359230992183,-12258.537948155048,17540.07729994699,5533.729588731199,2600.2353770372047,10999.41781893498,2415.719754627327,-12395.478261978395,17682.465903172084,5512.588266950977,2580.325863408415,10990.268549620258,2344.5861330195826,-12247.304517182067,17581.77854839799,5510.228300140703,2587.656902859845,10991.779330331607,2484.8005352300006,-12165.850730456608,17781.14602827021,5503.921184778339,2590.7050794534957,10987.696713191232,2353.17569338523,-12167.30722871227,17635.103237210067,5513.066552212746,2579.086301598899,10997.0444288548,2521.0041231237715,-12113.634359040607,17519.57201616228,5506.619995223981,2578.920757455681,11002.954742100947,2451.537422507153,-12174.435157914617,17545.160279868065,5510.191207054924,2571.8848448624535,10982.872409290023
4444.0,-14948.0,18628.0,2469.0,1523.0,1521.0,4232.421803140708,-15052.319275893802,18678.769163736735,2463.4223320777023,1545.3919211058821,1483.5493790618252,4330.526426927091,-14793.124569751499,18479.785968758828,2472.2498606577656,1516.7222265601833,1525.509222318282,4311.408458316282,-14983.05552130481,18633.259709150865,2483.4673733220498,1513.144802607187,1518.3539742168407,4407.985921608309,-14898.393660359403,18720.33827873198,2483.2536810988913,1510.428242648975,1523.0904219999527,4420.2478128404755,-14841.49934885537,18829.968762171684,2474.3660258427585,1526.339736904167,1519.71229053643,4373.285727737686,-15079.666364464805,18752.852338032157,2455.3755407953286,1532.2417879104148,1527.712481984886,4408.895973227407,-14919.301908257648,18611.889565508194,2477.8176176880565,1532.8831140942646,1538.4100420454379,4654.736007742059,-14975.646051228437,18638.575985727122,2455.711384847894,1524.1534659766212,1536.2120179426624,4486.7082251159845,-15025.33383157698,18651.50546797314,2458.414582556249,1518.256687024298,1526.0850683585666,4476.476937091146,-14770.702149849178,18527.82851707291,2478.0102503255107,1531.3601247836225,1539.6394261013913,4560.93038010908,-14933.312775754059,18482.23204803345,2470.347223678084,1527.8143555309832,1516.0925170394107
1440.0,-3308.0,18780.0,3729.0,2389.0,-5287.0,1437.0307719996692,-3179.6112420209115,18925.88258195717,3730.891858849735,2379.4631069681413,-5287.999095473609,1315.8758910607837,-3307.982138816475,18946.2766475138,3733.076796938541,2394.5882670096757,-5287.043159369536,1302.683414362941,-3268.1055382371765,18664.077279751797,3742.1394486439485,2385.216406927038,-5288.363647988499,1493.196807812458,-3515.884694577415,18712.50668426001,3726.722164456606,2392.8822557335816,-5284.7173337767945,1533.5523846842427,-3473.718581214046,18813.597241143398,3734.9150922347426,2384.5277001904146,-5279.993359188873,1409.8600201215638,-3230.9540865663976,18811.2033984836,3717.781830758252,2386.361951600234,-5296.660349775144,1287.5242989642381,-3310.4142964738244,18743.54419983028,3731.432509432192,2394.6518627820888,-5298.434391665955,1478.275654627488,-3408.3901863284705,18932.19682630939,3728.178267651107,2385.3312480528675,-5288.56826828624,1453.9197719593203,-3365.6062973325647,18724.820793020936,3740.181388637793,2387.3620772222457,-5287.153824977704,1317.8024869170802,-3254.280799948453,18842.12147762752,3736.9958566178375,2383.293586709888,-5274.320157705715,1344.7332147678978,-3255.732796507716,18888.055992197245,3725.2863520048063,2386.686692469709,-5285.371338685751
3516.0,600.0,17020.0,1886.0,227.0,-8924.0,3407.9742228687464,767.2990499160838,17098.704763274964,1906.0605726695487,215.71985594341248,-8918.548398778265,3439.788749904582,380.38213407984426,16973.239441038244,1887.4886125925516,242.99224802942723,-8918.866306263955,3525.6663169656426,633.7926575961683,16964.69217856681,1890.0797705157963,218.91948503031517,-8925.751244750969,3588.3545679548056,529.6302436448703,16915.061546674657,1879.4549426802016,229.9346465176586,-8932.91880759521,3432.950519844183,507.35941200801074,16876.433995668587,1879.0106611338847,235.81205268820247,-8932.942058568991,3402.931252862967,780.867700900681,17053.27032402229,1880.8650067015046,236.11676023407279,-8921.148587834594,3560.0705617131425,521.1445632905245,17128.15506404406,1896.4875710093736,228.88190815281618,-8919.243438301572,3375.72297624304,485.94666169658706,17105.223591621598,1888.0029841258993,241.0967072346882,-8937.348948949553,3692.1260085762583,692.4610109138907,16993.62877764001,1886.2641366929429,216.54924510995957,-8941.523846939843,3449.8303288022557,678.4396131000049,17005.437491200795,1894.6205656628233,224.8995581607405,-8918.700746327217,3480.337137932073,692.0828829818256,17048.3587549755,1899.2209522190415,231.96969632979054,-8919.989159216788
2488.0,8120.0,15232.0,3825.0,1564.0,-6549.0,2554.5235600886735,8095.662604229482,15162.70512182488,3832.074183565248,1563.185837324213,-6529.87506967615,2544.5561400505585,8138.984706773596,15264.810335119524,3820.5127587756597,1574.7509421151758,-6554.751214898521,2499.3791844939888,8113.350043350992,15199.560038850108,3811.6794598234137,1563.345773635364,-6559.581325757743,2501.0086465479712,8256.025308684395,15185.516272560566,3846.4788339395336,1553.4605702935492,-6561.742122918525,2464.634384067855,8094.145691796925,15173.091806483868,3821.7577936807224,1560.0513808316412,-6531.257239003736,2529.822446642902,8177.867410489892,15256.457081951286,3841.2435706852953,1569.3418412061203,-6553.216736420489,2507.8936648380522,8227.743932743759,15143.97929644182,3821.317179051242,1578.6152633988193,-6533.489255040244,2690.0947054022295,8128.254118973907,15487.148504170169,3821.0880124256837,1562.8209892833552,-6546.453157749022,2389.5369692599174,8119.322538207406,15106.517754560027,3834.8656106372296,1571.8106007427878,-6542.1149351245995,2444.2076722675683,8119.5132225329335,15291.859709302482,3830.564426789736,1567.440849006505,-6550.569629816675,2517.171541927435,8345.432883206144,15406.3848464522,3827.071502927124,1565.6341769089272,-6562.7487259451
2060.0,8436.0,21228.0,612.0,1099.0,2665.0,1922.662030320474,8508.623660721247,21194.763083346428,607.4896313454778,1108.1382026356146,2677.9251409561734,1953.8786132017267,8543.79386316681,21092.788992276324,614.1982090088709,1095.2682665694033,2674.5222868606397,1991.6779755373625,8391.723935473217,21247.290551430237,596.4146548315516,1093.6006048458282,2657.63703598661,2063.808945829509,8328.630344445126,21258.58408140366,615.426146435588,1098.2575468946536,2656.20335215744,1956.318827004287,8434.149284318675,21196.148100972947,619.8801989416402,1094.286985819086,2658.594623117765,1925.8430743097445,8574.037636971683,21180.932837685283,611.0982660936671,1101.577186317689,2677.5212036662015,1977.2764329258523,8555.690658193764,21191.95531181737,596.7277936100177,1102.7075964566932,2668.1290142974863,2116.3033584100976,8482.443613955737,21292.463317834467,604.014964510683,1097.8442379432345,2667.794356226557,1961.9741096551618,8526.684809847862,21212.04352541662,606.4781873575367,1113.3653435806148,2663.0987901334042,1991.550508844799,8383.988936195097,21044.35642212848,610.2401241195034,1094.8093116052833,2653.2630937423924,2062.455484700263,8431.514471508333,21126.16474105071,615.8305909365226,1113.7011450616926,2669.7282153939063
3408.0,14744.0,14036.0,-926.0,937.0,9068.0,3418.8435534313367,14836.512249137608,14035.614810608147,-920.1877544204937,954.8844394884756,9078.957048589597,3501.208557251356,14769.200187829814,14175.141217044054,-913.7631873095897,929.520312808398,9095.14115036151,3468.054569821076,14693.878879521755,14036.034787954917,-909.1455095920091,933.0349134351432,9069.612960679406,3440.421362910383,14579.181668634643,14056.48881030645,-927.0928552527009,931.0981896699556,9075.814136283938,3396.3453219439334,14930.979489907637,13973.731021830421,-916.3603467512823,941.0624447940994,9066.304198797088,3379.492226461196,14821.471129183836,14092.898725775967,-929.2931286881766,939.6058555160687,9080.753179578589,3544.411768338016,14782.287866841669,14048.912569329224,-927.050363193923,918.5214580621362,9055.65979136758,3534.185470400924,14795.856531524078,13966.835975639035,-929.8184422700883,944.5809810253367,9062.276983758631,3376.3458833448117,14684.303465704017,14031.770510048307,-931.4941637612721,932.379092660197,9073.828488197074,3316.6788175130423,14648.08700033564,14001.513378155363,-939.6865631214725,946.9999473890196,9081.958891067206,3260.734904264426,14687.909024427667,14100.14645252265,-943.7543555525837,927.1871410793331,9061.344004571167
-4120.0,-6996.0,32767.0,4658.0,1258.0,15716.0,-4034.020793192634,-6957.384891890187,32653.25130763838,4648.56362077089,1257.4074811261157,15705.420689745482,-4140.684551134207,-7081.020816243679,32848.46901577214,4672.116473501288,1257.1799431461761,15709.308647067122,-4161.707439763445,-6991.619823163118,32760.98229624133,4652.877557810935,1266.3995371425815,15732.266659626515,-4159.955213647318,-7016.120056510244,32621.71264317883,4662.395317064892,1248.7690923378605,15702.772181114415,-4171.410492452561,-6922.002777431339,32735.67982364922,4659.683317814597,1258.0312093662653,15719.647509869332,-4180.899221063083,-6933.431415756729,32844.79899627975,4637.25542021459,1259.5332662570322,15717.44602497022,-3966.8173125300364,-6903.329032297831,32823.001934047825,4660.131491057142,1259.3494423540433,15728.565625010653,-3932.7979335830614,-6921.94608903051,32666.979154617497,4650.719371727645,1274.2868765854025,15719.89173395985,-4156.3893679429675,-7275.053766630484,32818.86680658585,4656.7501314420015,1279.7410060281998,15707.363555834101,-4192.384237076185,-7163.71501175495,32695.652279031812,4656.8641501439215,1265.8269186657392,15710.27109256012,-4195.620750956875,-6931.836873860232,32849.49594041525,4661.877217527645,1273.8940408343394,15733.697181480155
800.0,-19532.0,23228.0,2093.0,-39.0,11485.0,961.0932145492378,-19588.19726152925,23025.2435665516,2104.1219040595283,-50.01480100371913,11505.7075010054,806.1315527606376,-19542.930818502075,23267.409646819615,2093.7456218204093,-44.0688847627376,11476.865394039376,831.1747923416638,-19452.915404880503,23167.118091250257,2076.473903168362,-38.057711335724086,11487.7631837677,790.9372744815139,-19476.26369722747,23316.887055167845,2105.889387328909,-36.41905254643538,11488.643793768577,747.6463559826584,-19598.480151459997,23207.733260383528,2088.820773210603,-51.278317827292994,11477.26401663245,669.6943583041852,-19657.73602985485,23094.25240975017,2095.175694699804,-24.211198301790024,11494.630126141887,731.4781450768724,-19608.025835395714,23212.49011046291,2105.163535256056,-38.261885383489584,11489.353051004391,772.9693471439438,-19585.389503665294,23210.759269990813,2086.225984726361,-29.54578914544008,11496.151765255725,560.2464711536298,-19543.1162079618,23227.457822798995,2095.8781927050386,-36.68108997927593,11501.505657816255,837.9364722571052,-19535.81643559523,23081.540743050937,2100.7976122425625,-33.14919076230179,11466.496864238869,843.0045721249526,-19602.897851411446,23340.038879855012,2099.19071992411,-43.072226487899215,11480.828306552381
4040.0,-8572.0,15156.0,1893.0,1385.0,-1423.0,4309.327022492091,-8637.382412936073,15130.000862448831,1915.2478602082556,1392.0419334204767,-1430.9640430265513,4105.674374149801,-8553.339500855613,15166.196629212649,1888.1045191582905,1374.6410969472768,-1412.6647126004768,4253.506835525439,-8720.673857906051,15066.652626751656,1887.2214666819877,1371.9113988428364,-1426.6527825631365,3838.0574070183993,-8607.886042264594,14946.875177739792,1883.6741607994768,1402.0584023629694,-1414.7480904024942,4041.1655508224762,-8433.933078391121,15068.782581656884,1876.410835898416,1383.1768801473947,-1422.5946510545373,3949.5226507027123,-8553.428561631597,15148.568811688292,1895.4831985243366,1385.4852617984259,-1435.2624886958884,3967.5837515010994,-8526.43573596432,15178.471807910628,1890.6839212934858,1384.4984864316657,-1408.8084169421413,4115.502029119154,-8698.868246825838,15054.056518001998,1896.6413260620636,1377.252277554305,-1436.9879522880171,3982.6872711883047,-8611.20329870267,15263.844254101834,1873.026862332319,1381.2204587481942,-1421.8479046452098,4092.0552773643776,-8559.759270726458,15124.415858541617,1899.6089587746294,1385.1981829023507,-1413.678171926008,4044.12448516326,-8380.507696150697,15236.362581667558,1891.503479912335,1383.5088465344782,-1414.5294210096974
1856.0,-744.0,16964.0,2976.0,2498.0,-3293.0,1837.2111036998606,-811.7025669678446,17041.313343720234,2957.230568077568,2504.273975318555,-3286.5308249399263,1854.3084141864354,-809.18779632986,16989.174565860714,2967.110941104434,2507.0926892738544,-3293.8910648854317,1786.5594715211914,-583.2349897110884,16966.237672539177,2979.4836446731183,2492.4126823245906,-3294.078412706013,1866.6125913524863,-744.8782888757635,17046.074203564858,2979.738816978099,2501.9029877630433,-3286.0273234082724,1859.5928058175234,-713.5889627855194,17093.103685135087,2972.5109866890116,2502.6934311100104,-3277.459051908546,1887.8152172416092,-754.7159200547796,16940.80170447337,2962.8422249802084,2511.148824503697,-3299.977860544379,1860.1450807565113,-871.5712491712264,16935.17771245067,2966.8046696328106,2489.350841573705,-3295.1788676400183,2003.2678335637597,-796.1493121217295,17105.466078525573,2985.8805819187824,2498.1952938181644,-3309.183901944172,2015.9111058172095,-648.6750335675474,16845.693277590486,2968.450331953365,2500.7566192445374,-3288.9183001774277,1916.4698938489319,-767.6303651447513,16933.66132539545,2957.5166618966014,2488.2550574544903,-3291.1684289461036,1766.4755847303531,-767.6979122776982,17018.35174980259,2958.740301337602,2481.2681479902485,-3306.246308276991
2112.0,-132.0,17468.0,4044.0,67.0,-3483.0,2187.63750635886,-186.69770412005937,17442.822842611524,4048.848033286577,86.30587872101319,-3490.470031202158,1888.775079323828,-171.06377117528976,17371.69773602347,4027.5088227397296,64.6901029590671,-3489.175457042369,2134.481002884296,-39.03652466541922,17596.7655223798,4044.4312369454315,65.69418836444422,-3471.654585711011,2133.2409285733374,-320.413394726618,17479.891996029914,4045.301651154963,67.68951110014828,-3500.391915271528,2168.632350806971,-162.47663913635355,17444.665825818454,4045.166726620607,54.11424552930964,-3467.862067324047,2054.638340832536,-95.92297114459002,17458.41594178162,4037.272528736805,52.25773400704381,-3491.023067842434,1998.5691459471875,-87.94187777774314,17251.674808100386,4031.190354544973,44.18669081148787,-3480.338481052618,2117.7914634625704,-93.19070330784095,17621.04928706314,4075.5277436891647,76.29180313654507,-3487.07424933075,2204.883111026566,-231.79684995308008,17350.836851269923,4055.352421868182,59.13200296125565,-3492.6065213143866,2092.002700000475,-73.7973058220714,17552.49801701742,4051.9022062841736,81.44518563075543,-3470.8510225256473,2192.5687384772204,-157.84249284742037,17552.030525629492,4050.3664311243,80.86299286784535,-3493.772307862774
528.0,-1576.0,17208.0,3774.0,1244.0,-5621.0,565.220680969438,-1770.4380693947471,17102.815743829164,3760.245264670432,1244.3207286188106,-5636.909026997357,567.6819739097573,-1577.760884701148,17362.058377747726,3772.374320200508,1241.359863155199,-5619.635563942887,558.8496740839149,-1701.1839362965973,17084.39814300311,3777.630465945023,1240.0764314346804,-5615.8787885551665,408.9059411576897,-1463.0922810821107,17145.297260179526,3765.6774126282216,1228.6995810594276,-5613.848611316691,543.5895665791185,-1559.7735854240223,17088.35727910478,3773.9484774765583,1249.2222630329636,-5627.509148819273,644.1919023259532,-1416.6210793105515,17148.229272583823,3768.5684725884903,1249.8331492993352,-5634.894579642091,451.403778849746,-1625.1134785220506,17142.804575817358,3772.622442566368,1249.129084440556,-5637.352506898919,575.7159564827496,-1557.2739755700027,17354.1462516027,3787.4724908718617,1268.7225033233747,-5628.440644159169,402.3457480087751,-1450.3131083373826,17088.32679191858,3780.733747214243,1242.3976786184073,-5624.030045922125,337.949072764445,-1668.2995472686914,17224.229311147377,3783.7931465367287,1236.6311032390047,-5623.58614058707,598.6028304695722,-1565.2640017978852,17277.598738314984,3776.0772140366116,1246.7613814456167,-5619.881139683957
3260.0,-1560.0,16216.0,4384.0,2664.0,-8965.0,3324.2084328077085,-1720.4990325001093,16180.216644177639,4380.628831789679,2670.4233529415033,-8970.462105952094,3216.4669973958853,-1492.0747931632786,16426.83456170873,4394.751309543967,2667.9457189354935,-8968.450653217213,3002.468200982819,-1627.6513495775437,16033.81920785638,4398.871519517675,2665.407742239588,-8960.208729981336,3282.101904798472,-1500.6009278586998,16280.042639824327,4380.800920347795,2682.973859652768,-8963.242959025503,3408.69328422203,-1603.0796141499343,16115.099567156642,4401.765912820438,2649.4348317357294,-8972.804331357107,3405.3985127030137,-1610.5378854736962,16330.893867312658,4386.492128285667,2657.640559489201,-8975.376615928128,3276.806198456809,-1418.7185285255484,16325.337470690718,4386.173231207262,2654.7804698453606,-8956.544619141758,3233.952871889554,-1485.0531696992055,16208.411219960171,4371.399765648864,2657.9517994143725,-8973.32849857104,3151.843423149144,-1476.586126660512,16141.543988885167,4387.531372637789,2655.58251077566,-8974.628656698971,3384.0376597056634,-1501.389918246712,16107.672277122612,4390.210267116016,2671.5408918746843,-8980.1795381411,3393.924540604051,-1621.1384194661034,16385.879334036003,4367.837414947088,2674.7665043593265,-8970.544881409354
1552.0,5168.0,16532.0,1995.0,525.0,-7875.0,1473.429007569247,4999.300320744695,16676.03379124811,1982.1412533115604,537.14954347623,-7878.849538755253,1329.4751970799066,5079.934450964369,16720.37116687224,1991.899724938884,527.1101906778568,-7871.434100900314,1592.9571660167258,5284.22595182795,16502.115864697716,1990.3492626675945,516.8559419210549,-7897.452906115878,1512.0111505912066,5176.745407806951,16549.481784388714,2008.096169954422,541.7288562967076,-7870.858200882298,1408.9725841871903,5060.218228648966,16410.405969862055,1985.6284262040183,530.5229000282325,-7880.23742427313,1494.7246213812657,5268.8436254518065,16488.762484662908,1984.4217459006466,525.7067592909299,-7872.96144797223,1620.4934281710691,5304.79590682185,16572.094753275844,1992.8041701733155,529.631707356143,-7865.754976880016,1554.3233660962985,5253.243351911671,16492.783730056002,1995.6636057179264,505.87142627003266,-7873.357354587033,1685.6909847271506,5113.089620236391,16479.477089882836,1983.6978796821782,533.8902140361454,-7872.570155777931,1529.7849692598795,5188.860512108545,16601.783256548722,1982.8821928034586,516.7930692392612,-7861.447457479874,1330.4224552594187,5141.791632008833,16483.970916116177,1993.8576363770621,538.9975150040301,-7882.8082718355845
5172.0,15052.0,15864.0,265.0,284.0,-621.0,5244.734362070249,14931.794412436297,15801.16093452277,270.6763089551809,298.98408947809065,-619.3454135105247,5004.510261245069,14929.518588737994,15995.337459127373,256.0475654868437,304.7275927821634,-622.4221168589481,5164.48251312105,14972.319492694844,15739.336629464835,251.8690892512205,286.0176977283716,-638.149891323919,5118.113695878671,15076.485118241875,16003.577751524792,264.2162767628144,311.5201168526398,-607.8926722638082,5234.364860917113,15221.176838967593,15958.669038740773,264.47387813382875,279.78183705915677,-620.8133101503437,5274.902660261949,15182.204038730686,15960.556076856255,262.85679943536735,266.48186311632975,-632.3715318629876,5192.529068691147,15102.366383052879,15943.058382417403,274.88575839522065,297.72163480469703,-589.8427118832972,4960.2972911368,15161.191337189013,15866.067538257457,270.0118735830575,296.97167250100557,-625.9529314455594,5027.244207586099,15069.943798006287,15838.409398208809,256.6181262934292,294.0890367155931,-619.6492898188222,5047.489867158132,15106.755279808853,15690.803941876717,271.8721421331792,272.91833097298667,-616.8507775371952,5295.34179195762,15070.241799160407,15930.89445311919,262.63140315794897,284.53602690546523,-622.1147931212078
2908.0,10820.0,14420.0,654.0,802.0,5950.0,2937.371119962757,10744.339497518267,14541.123783508512,664.3060269349762,806.5341331149336,5956.789444309872,2936.4753959538984,11049.80660966773,14519.584400241849,664.3259138031333,819.8605620224828,5946.815024974926,3117.520959788446,10725.664897172457,14399.546812099272,664.7044684352418,792.5435525490883,5966.476100762942,2994.275334484262,10876.837185080474,14290.41478061507,648.80277445622,790.0898235007814,5957.142396294257,2759.2611222591986,10886.763914480212,14392.884333549933,638.6472838111617,797.1285274158917,5956.9911898584405,2834.8988846294797,10803.178354712363,14435.269610609963,645.218080692453,801.8435503340165,5956.855854416596,3036.2188978930053,10850.2161566875,14557.779802079767,654.7266437270242,789.0262627170605,5955.439037182634,2909.453140338837,10805.731081071013,14366.09126029457,656.3745216486848,793.9556979290135,5966.3786881845335,2874.135332407544,10758.79693959542,14320.475045602232,656.4051031782324,798.5012098878444,5955.419747521446,2873.2719759585593,10653.690097993765,14368.407281181713,659.217073612404,808.9339777758689,5942.744205611752,2761.7835859293377,10929.162524786541,14496.05659258178,665.5924765445956,805.1130904675578,5935.903749527208
-1988.0,2244.0,25768.0,1452.0,3896.0,14021.0,-1953.1404482143187,2220.8864769067195,25700.03760117163,1458.1331377581187,3890.2878739033126,14023.764962775147,-2055.0230934586534,2168.518293403176,25725.1515870503,1464.5559990764189,3911.935977837737,14033.416357929726,-1901.213138750153,2067.5218119939564,25883.322631750038,1444.419983608504,3917.839523042311,14019.893357520226,-2153.5238199021337,2341.0634903022387,25642.712770337646,1455.7767672703187,3901.842888479714,14017.103503536353,-2032.6593707839183,2205.197732684057,25763.84097634905,1454.70725235674,3883.084025602639,14022.639050897264,-1910.3353840733334,2282.7503672687635,25763.20841361122,1458.1469761040762,3896.4117045297085,14035.815531951259,-1725.1299813008688,2161.5850395192756,25588.84483044679,1445.7699517293493,3902.2124029465863,14020.443557203398,-1965.781010799911,2338.6455463729335,25834.345513104778,1449.1797051882477,3901.8041807548643,14027.879387937062,-2166.5468487077133,2263.3266685162675,25803.112737867083,1442.6957373289738,3903.3920430917447,14031.406437883848,-1941.258698085067,2224.4567766020027,25680.522382955736,1471.0200627076238,3903.3512833214218,14020.859768365463,-2036.0432328959628,2172.8109482930813,25491.738241827457,1447.4834744623208,3902.5320917817667,14017.486993250346
-2292.0,560.0,18688.0,-1167.0,2844.0,13235.0,-2339.9489736839473,689.12209491457,18638.200166441835,-1165.2363566424629,2842.687218004784,13237.863258003137,-2202.6355628684987,424.074466284338,18893.999284509897,-1146.4714452168594,2836.033401391455,13238.272384477877,-2357.739293795935,537.7584310728905,18784.979402061177,-1156.419818217791,2842.785703591501,13231.778568599739,-2220.2034401809387,596.3185820833143,18650.336541410572,-1146.595775001022,2848.093620023939,13237.073170229847,-2267.139820111302,606.4456119311942,18678.529799591815,-1162.543861137334,2816.606945895727,13235.341638356562,-2275.425874013819,543.1965247084953,18589.460243278576,-1174.022522164438,2848.3914653998395,13232.366616122697,-2477.5910717120896,428.05295731001434,18529.154354229053,-1174.4488709810635,2849.065125909866,13258.275379906974,-2213.1980669586037,524.9445267837033,18740.630517709928,-1169.0068117298383,2824.7571239946774,13239.215730364956,-2234.715366196126,608.6595770796689,18801.527107369504,-1168.1980116054913,2821.66921450622,13230.828988296515,-2346.4830036290027,614.4609254374307,18785.658608016867,-1184.713251556038,2847.386919175227,13232.953337470413,-2332.3270296387254,459.3751062283217,18730.496380605495,-1173.6104019048325,2843.34497188175,13240.780960519929
-2208.0,-3580.0,18196.0,1531.0,3247.0,3282.0,-2312.3234416605,-3590.2670569767197,18074.859745977792,1537.1119630203114,3244.956412077459,3295.149019250005,-1960.2505545579415,-3797.5761757791784,18260.0825561028,1529.2758968713638,3259.411592039708,3287.987050089851,-2222.2605397435514,-3438.4780974903447,18181.153683941604,1531.2893183029041,3256.4048809412957,3269.4348209751242,-2200.3869718654855,-3515.5239716605383,18289.414040072937,1525.2832480626746,3251.2336849906947,3287.6871716530086,-2168.6238079480777,-3621.058017384641,17974.971470473694,1531.8484966234564,3253.4133820904794,3299.7452241826104,-2184.902986405152,-3673.9008890567484,18209.326476923736,1530.9043259352866,3255.1430614931946,3261.079003874536,-2152.4629876734843,-3498.9513965615133,18278.139430007377,1539.2754039708298,3234.8748786147385,3286.742034584243,-2132.04773337943,-3456.514143599889,18302.386208628464,1524.5825622751793,3244.0777232065607,3281.0411801177734,-2147.071265169576,-3519.9957199773785,18061.569457111953,1546.10842267793,3248.6812038550243,3284.804630889893,-2333.232131671867,-3775.52926424064,18279.886723551506,1530.3207646267942,3271.0413263804876,3282.4706295422743,-2174.8127080098698,-3632.6020344896438,18215.479086446685,1515.6633266167464,3248.924332929079,3274.5150600854386
1652.0,-3420.0,16364.0,4409.0,3358.0,-4319.0,1660.1680697135773,-3453.8617225970106,16217.445378471863,4422.176362786485,3358.2982887686917,-4307.71938184819,1767.0158832965246,-3441.795114761268,16376.810380317414,4431.475266964383,3330.777574071235,-4308.944036251616,1625.9681299080287,-3248.6546165491472,16297.065589814218,4399.252964094608,3366.723204763144,-4336.028748104876,1769.5702310566494,-3449.979643884972,16475.861858807937,4399.877115586802,3346.4898634136007,-4332.599600487037,1791.625201036472,-3379.2070340137593,16356.966909950004,4409.549630927723,3354.8006191708064,-4321.704620745113,1709.3916791333043,-3468.36605405483,16272.458285574676,4405.551596215161,3353.7100868974976,-4323.562605591822,1618.1806071602994,-3512.7249216434825,16395.856899303337,4405.481800983644,3368.103334849106,-4325.196175090676,1522.8757506139266,-3255.5897064887613,16323.01340571926,4422.086276269761,3350.5178950546324,-4299.601747005276,1578.204905029223,-3202.6117171270957,16394.25248858897,4418.788839301684,3359.4815377476943,-4312.25758471951,1844.019148758211,-3335.1437948630996,16214.421151416092,4395.405030042676,3362.920456290999,-4322.191927767831,1696.8365585773145,-3477.917108572326,16247.639021608551,4409.068593066626,3357.1454817270233,-4309.263034973119
3864.0,-8988.0,12032.0,5747.0,3279.0,-9906.0,3887.158645452899,-8801.700330585812,11874.472964293225,5741.918274005277,3279.496937636306,-9898.12211489571,3850.670420484608,-8963.478112318624,11985.919893854883,5760.827676998322,3272.0405727688308,-9906.089371578973,3873.068674901529,-8981.487911113316,11834.137290627394,5743.499775632535,3265.226629483897,-9924.42835814518,3969.063718916414,-8970.67857882152,11906.806830331481,5746.446442253535,3292.465084451986,-9899.263275501078,3924.842724398245,-9209.147699800718,11976.093364649802,5749.00746451647,3256.9946874347397,-9911.14199946785,3966.4137657800147,-8823.508786999322,12048.512998668353,5738.2811848983965,3287.604616196662,-9900.594045178517,3831.168716742573,-8874.403298375903,12125.771450157175,5749.2928682663405,3262.501882653552,-9898.408747292266,3800.5302964895363,-9011.939116161751,12149.971549957741,5741.620986344381,3286.395066398999,-9904.257088309103,3953.299714278778,-8812.394136045481,11998.629710382167,5738.612259136045,3267.489658787447,-9907.985414786051,3824.7612884921587,-9216.352570332192,12047.926098910943,5738.073669880209,3286.6306002884908,-9915.523497759823,3768.7054538061802,-9151.457512701387,12004.247342377568,5756.68071276221,3275.1711092686846,-9898.026305869967
2484.0,4140.0,9192.0,3048.0,-89.0,-14187.0,2493.2910097856475,4214.845706822669,9264.965146979079,3045.561279611386,-102.73607041679257,-14177.774032723895,2623.360951947013,4147.825719784647,9031.779897281289,3036.4365897295443,-91.6938107692512,-14189.140439044893,2456.8782494078555,4058.7568548827144,9094.907294043856,3026.1031829078192,-91.26713366469724,-14212.915706236108,2367.422206963557,4410.748299045806,9127.088949327755,3046.7380029879478,-65.14082588857875,-14196.842079544751,2350.7631848919887,4110.661154196255,9067.404612225175,3045.3317040850347,-85.64815091523951,-14149.757419111138,2520.537813999613,3980.918088130431,9255.608154557858,3065.9657582835266,-85.52340610490145,-14162.364026825582,2541.208992694745,4157.364189561331,9116.513484621177,3063.229111674851,-91.73051951812621,-14186.486624195726,2512.9114500680935,4245.135191414511,9205.412949299,3050.341895483592,-94.31870333315383,-14190.355072979153,2326.910009267477,4310.012451359352,9090.2948406114,3053.200872569606,-84.01983324345775,-14183.791220652043,2473.806169563529,4176.686422658279,9221.888185871572,3046.5856311344405,-83.3166174825871,-14200.543486280329,2614.8649207965946,4302.234941288501,9320.130298589782,3044.1334959897067,-99.64773652701217,-14177.207410985186
2140.0,13160.0,15040.0,651.0,-464.0,-5990.0,1982.6429555552206,13196.316439394916,15074.287247899269,654.2058015517521,-460.36228102723237,-6008.873611856354,2271.644134849792,13216.23786840807,15098.79177662661,649.4114348564261,-470.7822455142889,-5987.403953163883,2177.1577143262894,13158.587129659527,14973.295957061891,662.5847181093435,-474.15738701233624,-5999.282271607732,2141.9904462107415,13122.030495021012,15133.274492754454,654.0994358709023,-463.62782522674485,-6008.474876625327,2038.7517655768213,13349.76584398563,15123.00234304019,632.409304893089,-459.47293404285546,-5993.3870464304455,2163.4270257149083,13111.14648392718,14882.621126474445,668.432644705137,-473.2485969680691,-5980.3630188838015,2136.693294661215,13130.2768246892,15049.526146812303,665.5564598178779,-444.5971881283382,-5982.184446265848,2299.4672931289047,12960.892560828555,14991.981208865127,643.1772174057702,-461.2108134818567,-5991.202484806406,2228.4035630732665,12868.9641485659,14892.685855152691,648.7260913998374,-451.7538673419812,-5992.973939477611,1964.2865868841945,13017.790716921245,14952.83084145857,652.1734404048703,-461.2457542387466,-5999.79257239356,2203.7625483575002,13098.701853930528,15058.311712848435,640.789865059663,-464.38754836453273,-5972.12551117992
1240.0,4644.0,18004.0,1181.0,1129.0,1345.0,1507.581383988751,4749.549521152653,18030.75842869067,1175.057875730562,1124.9065469549412,1336.45578025614,1271.940395452291,4653.586626045704,17964.37589663155,1183.2818100345485,1143.6565163499918,1336.013285815245,1289.688694994035,4614.740029229069,17895.223649944546,1164.051114992765,1125.9301269814914,1354.1347976702775,1124.584613626452,4492.94249991027,18078.113664704015,1187.559108500436,1113.4151472400847,1340.8763244779977,1330.4154919254368,4714.533361374038,18094.812652026263,1185.0600493545257,1113.8825947523865,1355.8902738228628,1266.6810740080282,4551.547079373526,17972.867803007797,1188.781901247977,1125.6009068551568,1348.9940463561677,1207.351100653666,4686.149693067727,17858.027044594008,1184.670555909995,1118.238356276735,1330.5165865359857,1153.4939753064584,4753.118940771568,18115.547617355183,1194.3728122816462,1145.7639582794252,1363.3321387117658,1157.1686354404449,4658.127276369638,18045.362611459095,1176.1256262655968,1139.0790696273434,1358.5179369302418,1314.1095695882996,4537.794452566798,18015.42749853998,1179.9140482639586,1124.7241157435626,1336.0431588516901,1158.153079106799,4684.5069468436905,17962.649826601984,1166.3999523890511,1131.4736098626722,1331.7038465633243
2716.0,5916.0,15212.0,-1077.0,604.0,4403.0,2789.5531122229654,5954.133522920804,15329.622881189958,-1088.443223111436,594.2501028778678,4402.811578795082,2831.787449126631,5788.289141864976,15104.887563325956,-1082.0334583124509,613.1377963587128,4399.238671027686,2726.6540281037787,5966.959437392768,15221.525021565689,-1073.5416651875885,596.6636034796593,4398.497634715005,3016.7633520757563,6013.412635144161,15092.043028545593,-1074.0416779162706,585.2314111938174,4389.672483931574,2622.7882930638934,5974.04505278263,15100.321669385705,-1073.7058676715733,615.4328824297717,4411.786392211351,2608.8773582767926,5937.300946328303,15077.432382126184,-1062.1741712640178,612.0135136755708,4393.614458565964,2610.9778612936866,6022.9581525648,15043.879400061134,-1091.582124788963,593.3530609628837,4404.549206340977,2731.5144070731685,5969.479656169125,15079.893005105712,-1069.3676682553942,593.669947925099,4394.116879904653,2861.0378478269204,5985.073646862968,15031.4983977497,-1072.5148959371259,589.0590255541038,4411.472130564383,2745.3924884405246,6017.807083701844,15161.145139645245,-1091.40700069192,617.7347804925869,4403.531038424019,2745.6185150293504,5972.593031296244,15086.206943646628,-1083.9773720424819,618.4115248015262,4401.172168931685
2712.0,7632.0,16932.0,3106.0,2176.0,6120.0,2658.9964235391626,7506.64626946328,16889.58457995757,3099.0852857513605,2179.468404791405,6117.765886222936,2588.364180639418,7505.175851291318,16872.20018487726,3112.959665771933,2190.912046020793,6118.438001171917,2725.7996210681845,7740.4157753750305,16950.993148313268,3088.4040474853705,2172.331015738369,6120.491652187575,2729.626133200586,7669.434261945649,16993.460701403357,3102.804776029337,2185.3522782457144,6115.88800005988,2714.462583325489,7665.1907303479775,16969.332170625807,3102.7089963876438,2167.742438705512,6151.129373372183,2886.528871919582,7692.622654121384,16887.579728158325,3102.5918654267907,2172.634170259188,6113.306654388365,2757.297073773513,7746.413274895293,16834.913430043896,3086.5110399502687,2175.6513057429097,6125.876852186805,2791.640510479799,7669.864166147439,16936.977155197044,3109.748046076215,2177.6414884378983,6122.552678346739,2876.1475131326138,7459.260070355927,16768.003530884165,3114.56269094313,2167.326218289544,6125.69393129712,2781.1927937404253,7511.001302004244,16975.991980742056,3119.4381802573566,2170.285656678257,6111.6969206841595,2678.714247303876,7567.378578568502,17227.975177662593,3105.43168310006,2185.653488453209,6106.150449030383
