IMU1_AccX,IMU1_AccY,IMU1_AccZ,IMU1_GyroX,IMU1_GyroY,IMU1_GyroZ,IMU2_AccX,IMU2_AccY,IMU2_AccZ,IMU2_GyroX,IMU2_GyroY,IMU2_GyroZ,IMU3_AccX,IMU3_AccY,IMU3_AccZ,IMU3_GyroX,IMU3_GyroY,IMU3_GyroZ,IMU4_AccX,IMU4_AccY,IMU4_AccZ,IMU4_GyroX,IMU4_GyroY,IMU4_GyroZ,IMU5_AccX,IMU5_AccY,IMU5_AccZ,IMU5_GyroX,IMU5_GyroY,IMU5_GyroZ,IMU6_AccX,IMU6_AccY,IMU6_AccZ,IMU6_GyroX,IMU6_GyroY,IMU6_GyroZ,IMU7_AccX,IMU7_AccY,IMU7_AccZ,IMU7_GyroX,IMU7_GyroY,IMU7_GyroZ,IMU8_AccX,IMU8_AccY,IMU8_AccZ,IMU8_GyroX,IMU8_GyroY,IMU8_GyroZ,IMU9_AccX,IMU9_AccY,IMU9_AccZ,IMU9_GyroX,IMU9_GyroY,IMU9_GyroZ,IMU10_AccX,IMU10_AccY,IMU10_AccZ,IMU10_GyroX,IMU10_GyroY,IMU10_GyroZ,IMU11_AccX,IMU11_AccY,IMU11_AccZ,IMU11_GyroX,IMU11_GyroY,IMU11_GyroZ,IMU12_AccX,IMU12_AccY,IMU12_AccZ,IMU12_GyroX,IMU12_GyroY,IMU12_GyroZ
2028.0,1824.0,16796.0,1735.0,1354.0,277.0,1964.6044472047527,1644.5032000452375,16867.731069946793,1733.8554383060048,1355.4090933378727,292.2894914970308,2033.215172168019,1771.1092976982682,16746.865596607102,1733.923155368824,1366.5496131009568,268.8127322418597,2097.850021071468,1807.105425980419,16892.393276861574,1724.3555656923538,1352.7798803447836,292.07766660931276,1966.0480378942539,1771.9447820880105,16710.479466520344,1744.3095628664082,1358.7350081808695,290.43557300006484,1837.646191918282,1898.8998557621387,16766.376308008013,1745.5542081676292,1346.586583306595,270.2588119983068,2087.786421277105,1687.986298141019,16671.18913395893,1739.9762655054844,1362.0180646043561,259.37534560689204,1878.892939178568,1611.8434937973245,16883.01746054897,1735.6650042795084,1364.4848684165981,284.550894195264,2007.7422982858106,1713.0075076191922,16779.605470693754,1739.3989226445183,1362.7057637558225,286.047627373699,1820.3357138283204,1853.195747727238,16861.462438129653,1736.9524161837226,1361.740141023472,281.3366649872604,1962.3982581588218,1834.967943606543,16695.594236405734,1738.3288126413013,1366.379091118625,280.87105911462135,2003.5432735479335,1724.6979211410478,16647.246414221663,1729.1205615963918,1346.6779819797873,269.55710430874285
2072.0,1828.0,16712.0,1767.0,1368.0,273.0,2057.8052566768188,2045.2631449867483,16378.202355953987,1771.0646213311632,1375.7965304202357,266.10857673522565,2098.7325571715596,1833.5789738877768,16719.85057215038,1764.7080265321763,1370.3121339047216,267.0148039619006,2192.3612708738983,1756.7134277318587,16896.09243581701,1759.4478620208881,1369.8170520886408,275.31400885060225,1997.5714461991865,1864.8131705893982,16722.234399387795,1762.3706230795865,1363.976563542618,282.85655285430875,2042.7020487343632,1731.8682531827885,16737.412358674643,1763.0275119411215,1359.8447278612987,273.751450260018,2229.259719368147,1708.7363014670782,16750.233289459353,1781.699751085403,1368.3720660257188,255.20744072115178,2120.1412146283838,1671.446916189221,16818.34943450411,1775.930622880829,1350.6628453033372,277.21868960309837,2191.2143552935972,1928.8246669822367,16707.36192930941,1772.821289520651,1379.4700144938472,262.3089739247439,2112.2920090836565,1898.1370156889825,16738.930829657817,1771.9386801634753,1362.8357713569123,280.9606348546016,1915.5468351838344,1770.4551394006824,16782.314937965562,1773.4849653319895,1379.4394078750515,269.041562203629,2195.618487308274,2134.2379475235257,16722.253453091493,1771.6887005763358,1384.5127767313968,263.6297317934229
1996.0,1744.0,16732.0,1803.0,1374.0,248.0,2002.2063940648186,1797.522445838295,16756.640543008223,1802.7346059170843,1373.3778312247168,236.85808671641811,1947.7659460474529,1694.4211700856847,16655.779812907862,1813.2044235243368,1364.075349433975,241.51996433191152,2152.9683838184687,1541.040911591923,16720.7062042968,1788.8158812020379,1379.469201354659,247.1199651402648,2002.5352036439178,1721.8231224021138,16627.28922355751,1807.016958755463,1364.2989797012142,246.74302012943224,2083.0664348690607,1689.0436881178962,16937.58329546297,1802.9652698953685,1381.9497369847516,251.63811012136708,2041.660943826065,1605.701885730616,16871.78036976383,1796.1256172850813,1394.6630420322301,244.78023143211328,1876.2296516495328,1910.4630542020625,16690.968309405027,1800.5996736336922,1368.4919560060355,260.63901261645407,2021.7118189676298,1742.7829437833375,16613.24500297885,1797.1022482300837,1367.9473053222007,250.25740496424305,1905.846040624946,1841.9259991876047,16527.97485132937,1798.4701137761779,1383.5535208393503,231.26908088733856,2114.7548349196763,1679.792645969925,16718.48932446677,1813.4866589333794,1370.4119005067105,240.18942364782552,1958.1915521597537,1771.0227829389014,16683.349644324342,1813.2521199175953,1373.7829029149839,259.1118481564707
1984.0,1864.0,16628.0,1740.0,1368.0,285.0,1967.9429873233669,1682.98463970653,16584.794507187442,1744.2464248889676,1376.393520898525,289.4945239279646,1992.4360965262404,1872.2524903464441,16413.7531082671,1728.6045799046583,1359.3784456285018,285.60209375371784,1974.0305189919804,1935.499676700492,16732.477241816276,1762.0996602467876,1369.0863656832553,279.0925885091766,1961.9156999159752,1775.9393219088836,16473.42391635656,1744.3009269220354,1368.449625823206,283.61801352107307,1963.7966115961635,1813.558124718716,16633.748639733523,1736.312896201583,1368.4300919094912,283.3901296179691,1939.5397207573408,2036.8546198425395,16621.945122687735,1732.381939217975,1359.979494414709,283.15357756254076,2011.2322380559044,2059.9769519204033,16550.689210311502,1747.6932436228758,1361.848645820418,284.40093168109286,2086.4149558075696,1682.334758579922,16540.310242014217,1741.914188805677,1377.6371507269998,297.87919599818076,1842.6100981169402,1898.3651647787037,16453.961611172967,1722.696995480863,1356.0421478207045,294.1602649051627,2070.8555360742434,1878.4271735900888,16587.755140059176,1735.9090826052789,1371.69028424934,274.17992228879893,2067.202676333129,1877.6716966392644,16641.835721776864,1755.0173083388033,1347.2560934549897,287.0584523362003
2048.0,1804.0,16676.0,1753.0,1319.0,276.0,2039.5934406239248,1843.238079655708,16838.291375408066,1768.1175092431731,1312.6106541759993,293.680088501986,2187.2675265629987,1845.9119514124518,16866.000723298366,1755.4260367228353,1319.702685921103,272.61704996531375,1956.498399610714,1871.0413531630063,16528.849352252626,1753.7710457562305,1331.0036179090266,273.8774192252338,2179.4670996256104,1662.284014068118,16756.4777310333,1741.4779413303415,1322.9456365393933,263.22392073168135,1849.1595981532166,1709.432964629284,16662.437796353763,1744.31952172368,1316.3988250503296,281.5487418931281,1968.3252866668,1954.0444763949674,16636.38326364907,1752.3740020986822,1319.7102104330124,278.51341706091955,2010.385184481746,1764.2998153853498,16590.186258670412,1746.6329995974563,1314.7829807732594,274.65038803099065,2140.691059489803,1969.4546672001231,16612.95525076203,1757.0237775481662,1323.642730547544,257.8769346457162,2083.3301432815533,2014.331090853321,16553.24740975018,1762.6973561228629,1311.36969346683,278.77639239080224,2069.1420291604522,1558.367700863416,16650.476354318715,1761.4468286043013,1313.845379834529,290.8328979694296,2235.3252849883334,1770.161555631605,16713.91434884831,1752.742746168801,1307.2494130323114,296.33739771350395
2060.0,1836.0,16732.0,1746.0,1355.0,255.0,2109.6542447261854,1758.2380820251278,16716.026055501265,1753.8908048174808,1361.1041024952535,276.3167601417711,2052.2867077298224,1919.2116515395332,16703.782190994447,1757.5725872760324,1346.5154647929423,259.63129365659836,1997.371623080205,1860.03091687253,16642.517210742237,1762.1127751323788,1350.5454048113268,257.95109965455293,2239.850366235367,1765.3334924351363,16699.845242373714,1740.8161938537478,1341.895330195662,250.46770866158266,2053.521377023637,1885.4511839250345,16796.499170669198,1742.795992851755,1353.835611466062,257.8404815412633,2025.3298633665015,1884.5288349987493,16672.996842529403,1757.1233876187198,1350.53400026248,255.8591270856509,1991.2982483794763,1742.4306092798515,16868.334423434528,1738.7382284163527,1359.9136523270367,235.19466948044837,2204.6323688091597,1883.9342343207356,16692.353119092684,1747.5026672091294,1356.015967304171,248.4158664023467,2077.1248440023546,1816.655934926963,16857.552859075964,1735.5507437144104,1368.409169866517,237.76091033318733,2066.563674980785,1836.005548085017,16722.828687850295,1748.6481517042932,1348.8883722916098,249.8010773474375,2086.717528930713,1891.6698280844985,16834.124974332564,1760.0613386883867,1332.6275510607047,254.660646151879
2044.0,1812.0,16720.0,1776.0,1358.0,235.0,2067.583746790474,1733.2546770374909,16915.83800790078,1782.3305986804744,1358.2577084831464,236.19417328226837,1833.5403070479647,1819.2980261953558,16658.50579238761,1782.8180815573207,1339.9596839241524,239.4748298548769,1931.4985699168628,1890.4008179997486,16766.7734506759,1768.6620812603076,1355.3163875884459,226.5669703439845,2081.8358898387773,1676.8326541485847,16720.09697297737,1791.7423697769843,1356.2189176160673,240.14058973474994,2145.6429661201464,1980.382280048808,16664.171955076446,1762.6728166792827,1356.9543646989737,229.17317195702412,2038.09893566096,1867.50979708505,16527.67873627437,1775.9751177965911,1369.7720183759554,245.8812543846546,2012.8707725461381,1759.2069400038827,16783.635818792387,1768.7686976436373,1377.8165247073434,234.41833579204254,1858.7830592946445,1935.2183740414882,16841.829176612846,1765.7302875638713,1355.3917816136286,239.6064287993439,1975.329067777615,1682.0569415892337,16896.943009879124,1790.4587801549453,1345.919020707635,234.65355577693873,2128.4313813728486,1829.453692612954,16720.046129306178,1774.4498030600685,1350.6683454451074,248.3927826621192,1958.7987635472505,1985.3050640637475,16710.511369225234,1765.2339993390694,1359.0567781963653,262.88225357124634
2108.0,1816.0,16660.0,1760.0,1370.0,292.0,1966.8107992705961,1739.4505136198704,16680.02270928583,1760.0805021924548,1367.383069418523,294.28905426068087,2184.002942617773,1898.267142009251,16910.410589309944,1765.4004852767869,1368.570159450142,304.51398872239605,1995.3064915108532,1899.8581294084909,16682.111169101045,1726.3201369022995,1388.1560457732614,287.847396050079,2064.5561954707373,1911.934499814955,16689.746650306046,1769.6253415329734,1380.445833407913,286.70087795520055,2071.3023928656603,1804.9905988788682,16639.228815460552,1765.9834403698098,1364.5757311877992,285.4910842401145,2125.011359097298,1907.300326242446,16653.195554009795,1777.012073282029,1363.2132480551954,303.7010720878584,2256.410130264594,1813.169243974563,16588.437914306767,1754.8844695112207,1373.6468477867936,288.16141255389783,2145.1424899573676,1751.9482543340403,16651.483303742236,1741.5228300614394,1368.7321584210008,300.1198955275883,1972.2345618952118,1529.5509925728365,16668.09155930891,1745.3203136770792,1376.801549558081,301.34802917738057,1988.6369087927847,1750.3342970102842,16796.74643652515,1780.1848286602467,1381.9591869067199,291.5460631623606,2180.9298794468364,1758.7662920613573,16664.005160677887,1751.118128673165,1372.8871158836496,286.01655051787975
2080.0,1836.0,16704.0,1750.0,1375.0,268.0,2085.0666184571737,1772.1788672276007,16853.903355405488,1735.207219307103,1376.5398560653575,245.57863781356113,2250.5853955677853,1734.9098134157105,16717.001806814475,1772.3660127250525,1385.6535697063318,266.18585024231777,2155.1478479571065,1817.0767893431798,16654.02912762804,1735.3595912010787,1385.1274643068575,274.55840880953815,2088.8440384967707,1752.3373855484185,16378.242298571997,1731.6849961949863,1360.2741279120346,260.8915502816074,2016.7495334405419,2090.721628483366,16715.79646569515,1747.7687279691647,1377.9397067826665,266.2595602108901,2254.8666317414395,1742.4663677808483,16720.030220270422,1763.5021173213988,1375.6804332576514,264.2721033202763,2220.338219267531,1702.394671383447,16744.6968168195,1735.7497856900482,1357.6018084329942,264.78282030684966,1981.3545988664237,1741.7381672703648,16886.617514708443,1756.1357186950966,1370.985970649998,267.628549586439,2116.712981348774,1918.3939015245944,16649.13183545314,1739.4005811107163,1376.2754329275838,264.5113447607972,2299.2446504264913,1870.1661147946304,16818.6782231633,1754.995999067205,1368.1396685457073,281.5892574125018,2010.4140473687005,1974.5232347140277,16720.74888756609,1725.3723480583108,1382.6273117718654,290.53193937707476
2044.0,1840.0,16648.0,1756.0,1328.0,250.0,1960.9068881688265,1784.1157155333678,16554.20772651961,1757.4336466619357,1340.0702834316753,254.02578712601937,2026.4749820419393,1754.3325252060424,16525.816442571046,1758.8240848780306,1319.3489733159777,246.23968750867004,2087.129709088754,1598.6487884291087,16678.89098517353,1759.4322813600313,1319.3230972497527,255.22874772069747,2077.1412243212612,1835.8875205100092,16635.52014501007,1741.812214107052,1315.781149203025,233.43935708658202,2137.9632204012273,1787.8886172531386,16607.851150017334,1753.367454565567,1321.0731357945617,246.03953248080995,1917.4450158446255,1967.0639386232997,16703.519811339807,1759.6896100365016,1314.1414151165307,244.55543138816537,1984.2943024151543,1849.5812569628197,16667.972205387676,1761.2354152831354,1330.5732428039205,253.61510027313454,2060.8566759453283,1899.1331695040128,16542.640372154914,1762.72613404908,1334.065264883386,239.0844777320503,1872.6163829864229,1843.8970079328872,16591.369697231698,1764.7309796991908,1332.3706347552952,261.1639876109728,2030.8815918931725,1839.43418522871,16600.964855574493,1784.1931935287246,1322.0826414040173,247.1861867627973,2079.568478558869,1755.303115507439,16782.483765493613,1763.3995288073625,1343.25059004778,247.23811109126672
2128.0,1808.0,16692.0,1735.0,1354.0,240.0,2214.8233889871854,1864.8669266300624,16690.606867030212,1738.8852126408883,1354.1334790486346,226.96899892462358,2222.699839133923,1865.3136223145552,16650.950817382483,1742.423195881851,1342.0791607637007,234.10711668796674,2081.6851883902764,1784.9851999639088,16703.37965104736,1717.7145441388448,1364.173395136476,231.57238283813368,2146.6460426412696,1827.9289916084897,16682.874044993674,1717.2416305699323,1358.6818398903301,241.96573799535423,2190.4136936237724,1877.3125062756862,16713.037156393657,1737.2811781620135,1356.889514282506,222.88772477318412,2231.754091912289,1842.8463965170754,16632.16857845599,1741.220070736744,1365.1368960851742,248.328642690734,2099.724588917557,1862.5090587345917,16733.123337087054,1753.53995752878,1357.7037512952895,220.4716181720308,2239.073644031932,1691.3704791222212,16641.41675330349,1743.365725867002,1364.6841275941986,251.66886617608992,2220.07372607357,1798.756511109556,16775.034954489714,1740.701439494994,1348.348589130836,229.3680509739283,2012.7036268493837,1663.7434407347253,16642.621101312034,1723.9050174089416,1364.3225324825255,216.75676137689945,2096.360836859003,1967.0627150579849,16521.311216375943,1726.3396738043582,1341.7709938964247,237.82625117665776
2012.0,1816.0,16664.0,1778.0,1363.0,252.0,1995.7776232823885,1823.4995505864886,16605.06610877359,1783.125172826033,1362.8940025536247,259.3611578867139,1947.3286709310632,1687.3468954207942,16669.504735998602,1768.741298879623,1345.3253944372932,255.09352911369257,2050.884859808596,1827.7482140729803,16524.596081064177,1755.5271645726348,1356.4589973149052,255.4272537290642,1970.5179260492298,1876.8389531663113,16683.449171203647,1767.6301904764423,1354.4458374799055,255.00326752696688,2021.7676075231311,1934.192985537507,16500.77202014043,1798.695727808702,1359.396865077587,258.50704979143956,2206.2817304284167,1632.9014629788153,16788.35726151827,1764.232583948893,1349.1969566408793,249.95139416106065,2013.6596750723593,1653.2722490410833,16538.01453352628,1773.478061278875,1355.210562321313,227.15635641591425,1879.6139588843769,1629.649531960585,16606.954117206125,1773.3963690553253,1382.8088133439423,239.14149350584094,1958.2955214062306,1871.1814549191645,16605.984354720473,1788.90705434625,1356.0807375753193,252.9863427267511,1954.7061912466736,1792.576880900159,16629.2684780239,1767.799814718434,1343.0632896893153,248.75340654540412,1988.5029931659192,1633.1704267799555,16624.28499408938,1783.4680994673952,1372.4163524956632,239.18056374746826
2032.0,1820.0,16716.0,1812.0,1402.0,264.0,1836.3412697598596,1785.966223875831,16584.36011472687,1823.7800879765389,1403.0273975541654,257.8861991013727,2333.7289403420045,1861.5010034878246,16533.833963379344,1804.987533720624,1409.7875997394376,258.6234321749073,1972.0491744395872,1709.3129178016766,16738.42638209801,1828.0526673699856,1407.5060619665546,271.2512748695632,1971.3616765900636,1711.9569418276433,16804.791018651165,1820.0247893046514,1404.0345914495313,251.3210530224842,2041.613291329359,1862.8408550077309,16849.38937366312,1815.9930560737876,1411.3473207045406,247.31192767461667,2057.2302826628365,1904.7259682276035,16589.169451052687,1814.5773226585782,1399.8790396591712,264.9755204595292,1930.201243985814,1741.893359849458,16740.4526938969,1804.699126596493,1404.9218981773388,261.4537907086537,2019.1133465149896,1855.9112002235117,16648.942786485084,1816.7207037280086,1386.3017904108615,271.9730062222198,1983.6210854708172,1959.4930869976502,16677.58422609083,1821.8852685317443,1396.232504905367,275.5636857922294,2096.0774645149963,1611.9710552586716,16809.755961718303,1808.8175868227968,1407.2042240059013,260.59054107401295,2038.509986218958,1737.4986296839954,16529.641607113954,1794.1876059067156,1405.516403866012,278.6566071424835
2064.0,1852.0,16652.0,1789.0,1375.0,273.0,2134.0984540137556,1951.8905797827115,16681.160129310054,1798.645978029538,1367.1675216841063,283.98194539986054,1861.9019550469698,1882.1583748795522,16465.730337718953,1782.7605905077996,1380.213861337599,267.6534533903852,2203.520143934089,1851.8131416531073,16526.79871104687,1791.1532502604723,1383.2387425808556,276.632242264035,2099.349408232088,1887.3475505389702,16614.002222366144,1800.133229967052,1394.9179773056564,268.9073039361852,2097.1450817632667,2091.620281178369,16755.45957593023,1785.289176148352,1364.8353615710846,266.88193551184656,1988.5684533328624,1933.1815166700762,16769.45268580047,1793.6949321589532,1361.0146172081065,265.0139572997923,2160.25987127972,1745.610381413483,16691.660942980077,1793.740107267898,1377.0467854227024,279.57395903044517,1973.246944086788,1940.7459761799057,16595.46440431911,1784.5956384926528,1365.6865690997838,256.39423651978916,2046.6364051234639,1647.936791855365,16631.73322056839,1795.8776750842608,1381.4999848944822,273.7439903525305,2063.501913902122,1643.571153942312,16535.66233343747,1789.6415419050957,1376.7302675179512,259.9297228811628,1929.509992729539,1780.3495030377276,16761.510862864445,1790.4700976681956,1364.047000560795,274.2061910986694
1976.0,1804.0,16728.0,1757.0,1359.0,283.0,2003.3850407231002,1896.6435874014496,16618.174266041442,1746.1364718877294,1370.6741921637317,287.792780383616,2047.415658129584,1706.8258879660677,16825.562301769143,1741.166459395688,1362.6348642968535,280.5124476633278,1811.0048519824961,1931.3786905906563,16643.314596815537,1769.5644316124371,1361.1593577883593,285.28300261274455,1921.9806429679186,1837.1418299623601,16685.45752755492,1753.9201440936401,1350.6294103474756,309.904667774785,1953.2753031352854,1989.4134527433848,16764.389966505532,1740.205820053599,1356.8332851730268,280.1324573853417,2034.7293999468734,1726.2483707791362,16715.473202214274,1756.644595886197,1356.3195265133008,290.5914606878697,2048.8314164026197,1845.6972402608062,16550.07064990175,1754.6148442545702,1358.7469773122475,307.3409601821492,1916.8983073404947,2017.7903821103723,16547.95723016243,1770.867276773681,1369.2954830195108,281.3919769629115,2113.1813111594283,1894.853109636457,16626.06804203031,1762.669026432526,1360.6565487709984,270.24221644614875,1925.160466340232,1571.5032158062306,16689.756072775774,1762.0322659205397,1383.154553548291,282.803258860261,1831.1823372032247,1725.3763837178471,16561.024081358362,1764.1199807214907,1361.5462540128506,290.45883249296656
2028.0,1832.0,16688.0,1759.0,1351.0,257.0,2051.2004704481733,1851.774641637675,16627.429300003936,1757.8082798214,1352.3854857103133,258.7842476197057,1852.0641907926372,1795.567408525249,16804.49987758478,1763.804740042568,1356.6906309480798,256.3315644326376,1929.496622258698,1877.9794255061806,16615.068642593287,1745.692819100744,1341.7721213750326,257.3735984348489,1903.616253331831,1710.4249585649154,16709.987974289925,1763.9833273297677,1357.3689885081415,250.57441647592083,2154.3685975102844,1774.0174910535375,16674.76808965456,1764.678291821618,1353.3746334381524,257.19260938287886,2059.389539414178,1785.5522073965333,16797.09386861069,1746.243043574516,1346.3345085216943,260.56684652753074,2049.406561158295,1870.3301855547788,16668.375430299122,1765.2587413976694,1345.031341066349,256.87627832256237,2044.924142395082,2028.9415847354514,16743.402722994524,1768.8791120468998,1338.1364044875022,251.03217213577778,2055.27860370869,1888.3370731286202,16703.494837825656,1775.0583062857977,1340.393812891672,243.1428809612335,2036.5717690288866,1801.296696946328,16588.346521351457,1743.7870905589677,1345.5248728734837,250.86936817354493,2099.992899165152,1896.0672508788293,16706.583250664487,1784.1808557884642,1346.606638431391,250.06731709852787
1984.0,1860.0,16600.0,1756.0,1326.0,288.0,2039.838111143358,1789.933444651474,16533.53821760501,1746.7305428192951,1315.4206076814462,269.85836544904976,1938.659710594332,1823.618845025604,16611.16739066634,1750.243162124256,1322.0805073637555,291.64368738195554,1884.663379852795,2008.9270293004238,16855.35858531157,1773.629286792702,1330.3342491654373,289.95327788170704,1933.5105054980347,1589.7371942167438,16450.430870247335,1744.8654578271985,1311.4746153263964,285.2813727401078,2017.1323188293388,1828.4771653011064,16678.80845067526,1772.8662020941472,1348.2135593552666,290.1824369800946,2132.5054955011774,2016.3115779018976,16629.670799593652,1744.4997585891413,1318.7866216014106,291.0728906373208,1911.496491771212,1822.7631309809242,16462.6269082847,1752.2733306750893,1326.106857650622,294.65915192977815,1958.155292060587,1763.2432119594944,16552.38210090995,1755.55504866333,1334.1398627270898,276.5839858820815,2053.0132013786197,1700.3510508327865,16631.875993934336,1757.5609849915961,1339.1017670007495,278.0277801204791,1966.7196807547616,1789.1914174589524,16649.061235467627,1748.3331856014927,1322.8136831196418,269.7830162384647,2135.781840175986,1865.5777092341812,16437.44894309804,1747.3266660288498,1308.9633921028221,287.92509237048034
2032.0,1864.0,16616.0,1796.0,1410.0,269.0,2015.7074961323792,1747.7449965423325,16510.442997296534,1795.3645298768613,1412.9210267499307,272.8894224723118,2133.714219477523,1807.4236650266218,16582.213034470762,1802.4775644121182,1399.9648792847636,248.97804526081916,2063.4951808935316,1840.5324740195367,16494.37471062493,1787.6191963508231,1411.4833963952308,268.98581307597493,2021.00117577608,1935.2288705249882,16776.598035834948,1791.3865369969462,1406.5906731925331,264.4446611629372,2039.050710075271,1998.448279162662,16614.588378521763,1776.2996684600018,1424.1228854537594,272.19303817535945,1999.7632057522746,1898.4698427105568,16578.43785675281,1800.3425353174932,1414.3182893420383,274.14183248618554,1964.63702264321,1875.0883138117822,16529.523663167554,1787.3673420931718,1406.4164653629914,263.65428468657785,1994.0387889261533,1880.1735547192422,16722.237219083938,1793.0270040714643,1408.5242506730742,278.65805364736565,1962.361525795754,1874.9503208576848,16676.266923785253,1805.729828860166,1412.2329086515115,266.82794295462,2033.204200191953,1796.2939012985817,16373.981670465966,1793.666360822603,1407.3740438001844,276.3475535636489,1975.027771613717,1895.7164531132776,16585.897493872297,1780.3395855962408,1414.6179985055542,263.70115991366555
2024.0,1824.0,16772.0,1751.0,1338.0,256.0,1917.5921341341393,1719.5306045307814,16757.8967882048,1755.472940124648,1319.6263145572007,257.5901358237914,2054.9912531949785,1729.7170986029798,16717.094322413275,1742.742944842143,1339.710780722287,253.66516448127194,1985.7475019829567,1928.2780104851736,16871.949204970413,1750.9790027960237,1340.8915375162346,249.6008266418112,1991.7220432234399,1930.115532435255,16854.121023417953,1758.6631972264056,1336.0058891928966,255.0306507747657,2012.9184908306745,1889.9173179784534,16787.209237778057,1748.9302534414487,1339.7576561229837,257.22467607304964,2114.27028326393,1875.9914243469539,16971.159547808908,1763.3319290429483,1328.1765042388938,264.6963893628167,1910.158768819215,1902.7562945533243,16746.98372164751,1742.7720786852399,1351.8371514197463,269.27702624224173,1969.2006274318026,1929.3700553784654,16845.80367922178,1766.343252955053,1346.0816976167876,248.12506005819714,2113.129962907567,1911.791281795341,16671.979200713165,1758.1277559267849,1334.206294527636,277.1573034762877,2087.3326599159554,1772.0218493776015,16805.64221218993,1754.749671041271,1318.2344242820004,244.54150195923816,2120.7457016889352,1926.0885560844279,16921.30962735503,1730.1168537142848,1331.0093697614645,271.7453130265677
2040.0,1844.0,16652.0,1788.0,1396.0,286.0,2076.5243868680395,1844.996071376142,16777.791732197536,1788.0062162472743,1395.0185017180054,290.59147012358477,1926.2929730726626,1924.2069441301119,16598.767665964297,1775.2335294790964,1384.2162107626255,285.558334887403,2165.8205165837144,1637.1395378042057,16782.8446391717,1782.9014043436725,1392.3033476458684,285.53194009472577,1935.0175300705787,1960.6502474491192,16765.606319389615,1789.8512306980354,1386.135340372309,304.535277701734,1930.4492194266684,2020.4661388805778,16660.4844281646,1774.090429268365,1394.643091877235,296.2368469117081,2077.4633651417453,1822.2018938690226,16554.169350749453,1800.8583585920815,1376.5969831437942,287.2606910634551,2215.980033395728,2066.3603500672975,16617.711011459098,1798.3095042628227,1377.0264197376266,287.03763540046606,2084.144409805116,1839.4011688234132,16539.172910419948,1788.7011424938041,1394.0630901371737,289.9819163174012,1885.107259567796,1870.0101661153835,16738.009606159874,1787.5618089965137,1390.4952243546375,279.33522839029035,2155.130091463055,1931.7190411676988,16722.338086770076,1784.4490966286144,1394.4832651548916,289.8250051563306,2028.4991608841271,1893.641847925921,16633.83882199682,1779.8628135204426,1386.029757885798,278.7615799584555
2016.0,1864.0,16712.0,1754.0,1384.0,232.0,1803.7452320297289,1797.039483707728,16807.511802896955,1738.0079630376445,1391.8572723105985,229.35854808921,1873.567414973902,1963.7497467180385,16730.59381814434,1733.0255341096677,1388.8214605770995,256.55558824426754,1923.3162478141119,1810.6023026222194,16666.824685931857,1749.381611705344,1375.6258407884677,238.83998523692895,1974.4296852703785,1916.3065818793305,16720.537456103026,1766.511026711965,1382.2335560858517,238.70202689361935,1973.8062460483845,1812.9044755610144,16648.267612978823,1756.3028519132183,1381.845382560048,242.1017290523123,1925.844932517508,1754.5642641896145,16683.650242763593,1759.4879401772973,1397.2875585731385,230.5111064119752,2010.8408894245558,1993.6858909991527,16654.351955669063,1747.5423599570363,1374.358709365654,224.7279238000027,1915.2738263335289,1735.5261199076356,16855.942273791978,1751.7094461862769,1368.6119532346702,258.81139533660996,2024.6936019872385,1877.1744316382378,16656.20504209301,1750.9938468551966,1383.8048589408784,248.05511117435813,2043.9533139202385,1729.1958115973343,16558.40897211061,1747.6911333191238,1373.7405838829882,237.32381572785363,2005.7340705969082,1882.33712106261,16653.941231101635,1739.6290740133065,1395.6593890118443,228.86555474664027
2048.0,1796.0,16620.0,1760.0,1349.0,270.0,2134.3951781770634,1734.328592920435,16695.26392807345,1750.4340333857897,1338.3139610896437,263.03687362724577,2142.0001651024727,1775.8893169810028,16638.199998526474,1754.8180123578481,1356.8983382658512,271.2418746637729,2039.0763124479427,1895.5160701828188,16580.946018606835,1766.1801414291765,1353.8403761503703,255.52704670475669,1939.977753408198,1752.3039614720767,16660.58962770891,1777.0529963455429,1359.4627683091528,268.13391124216093,2153.7449998367592,1685.8860545760667,16724.308007499185,1767.5205513873664,1343.5351779696423,271.9126231194544,2104.8688070682865,1561.724797863455,16602.678213446994,1761.0272006454645,1358.9061911841666,276.3162208458549,2230.13958708544,1716.8729236031056,16708.919089174364,1754.5590612782457,1358.3369344215691,253.0006848160234,2037.129476418793,1839.3740332244874,16732.387748279045,1777.267009709795,1348.7317066341936,282.4587766829695,2300.8152405444753,1659.274866028439,16754.768196643705,1755.5688102658487,1342.8104334287832,277.3739549998067,2076.0655039051294,1763.2961129316552,16765.709134271347,1779.3069609657273,1365.3450822062348,270.5245365121129,1865.865874568647,1732.9335214192977,16790.009947795555,1775.0675969450044,1365.2277021108507,277.12549083921033
2028.0,1712.0,16768.0,1724.0,1361.0,292.0,1977.3319660902148,1730.8326713603055,16928.06470843173,1736.8818178141491,1356.728204213122,287.4789305652351,2197.4857678265084,1810.3679360151848,16694.51121923346,1728.3261333169423,1364.2411143627826,293.491504550364,2062.508782117822,1777.1185077664281,16756.058843978153,1716.3286390436788,1362.2943381814396,277.797430159117,2013.8311462987715,1648.5463047075893,16846.687519645147,1710.9848681677793,1362.3288835324986,305.45044802908353,1752.7143552703985,1765.0302204045788,16919.837286733793,1729.1019455482779,1357.1853881528436,272.8251949121405,1924.6538955599053,1661.4709542192782,16721.764762892195,1726.7843218321584,1355.662823057509,288.8650246059719,2108.5899073082264,1687.157865289014,16715.298510557004,1719.3145066756656,1366.878415032671,317.76180620169305,2011.0796484287873,1597.3222231952298,16785.158454578166,1722.159152686875,1348.8726324101353,294.7722673643569,1934.4350338205668,2017.5591055608172,16826.987776132293,1714.13886017711,1363.7121786003288,322.8736682371639,2004.997233216035,1605.9591437885208,16679.556706376537,1708.6081426973249,1357.1496005011809,293.4394120409337,2002.6966064284572,1765.1820105559286,16868.07936882067,1745.7667581648607,1350.0669882339398,318.32432396714677
1992.0,1776.0,16692.0,1764.0,1376.0,258.0,2092.0828809766826,1870.9264050441175,16864.47722185145,1784.6579596335166,1368.7487348463553,255.36738384043662,2049.6071070306616,1783.4741823283728,16550.479419759176,1766.810893890922,1370.7335090695865,258.7521219886952,1839.835577857495,1870.9073177278538,16495.10732487715,1773.2848756747132,1382.0336274770177,259.0340866915252,1944.1862224904512,1891.7204102720818,16844.67578883374,1740.7559280580933,1369.140401599527,265.62742093361135,1601.499264927289,1894.0593048688813,17066.120926813062,1781.4089653064168,1395.9402243939646,253.198795470755,1876.440238469891,1619.9807841563745,16851.002610268755,1767.3561360421957,1378.155328339425,249.85839538208484,2094.326599257302,1617.8848451886674,16577.22954048242,1755.3806738572641,1381.8200463801543,259.33027867522406,1910.5709978465304,1690.9416654168538,16615.73974658971,1776.6114411299036,1363.1600775561608,260.21592868771296,1939.8043338279847,1691.5674536271613,16762.605671152018,1767.299463965463,1370.3888945399312,262.1417039266288,2186.375128683504,1875.2638425019459,16546.255565313764,1785.1728573657238,1387.7407957662606,262.3818687478071,1902.7571660835179,1881.9584129330665,16696.81342589967,1775.230616436765,1367.8699769398786,245.76806892295835
2056.0,1816.0,16716.0,1760.0,1363.0,279.0,2049.4577116185897,1674.892831099501,16562.473395265257,1758.5977094210152,1342.0429987107525,275.43289061395075,1998.8102505470515,1820.5290971111267,16791.644931055347,1763.6509195628896,1376.1632920846553,293.2525741591075,2057.0344056235926,1763.7279112966446,16741.25647924535,1742.7545180384523,1355.82872060905,280.14473983152527,1989.047146834367,1899.089591642475,16786.05317535791,1766.648954212886,1363.0765641092728,288.72676442116784,1996.5702117463786,1869.8657310238907,16869.285101291556,1751.5416614761677,1358.755656464518,280.6921116732715,2181.1121287904325,1793.1932327522861,16849.172370605436,1758.343957996334,1349.672129240254,283.977419879448,2155.3817321731694,1903.4491276952276,16692.9954737083,1767.8640461689151,1361.81996911778,274.32836625303327,1960.483246582314,1854.7382957916989,16768.16546273251,1766.7802207043794,1373.753405072463,287.7791271562602,1993.8251116821682,1734.25548488193,16684.18260257601,1761.6693686204303,1352.2666617876387,295.6576237719197,2129.977342413988,1990.1257744262073,16685.974718035533,1765.563424752091,1373.6101207523955,290.59809260331804,1977.1185532927557,1590.3777821221465,16803.103449905073,1750.8784809187118,1358.3909937498088,277.7222112002289
2024.0,1772.0,16684.0,1734.0,1344.0,251.0,1969.4311380181546,1676.3093959705564,16777.210753845804,1713.132180679864,1336.7366878207365,237.2253483011727,2140.950405917769,1846.226520413552,16653.78328639293,1725.7158625369464,1351.7237498052239,245.30440803108567,2136.7073328760835,1834.8542814465352,16776.902020646077,1731.7188634632603,1367.380119511664,252.54192864547454,2025.8705240289137,1769.6964780438666,16614.610001390032,1717.3903218694074,1354.317382663513,239.3472976548937,2196.058020714914,1824.3274554484585,16752.510471665293,1754.1854535582086,1359.5243151590782,247.55165632709173,1989.934145884092,1805.6494870641857,16775.0966778726,1740.777411541089,1336.6433395481013,260.1590328158992,1831.1369836592055,1723.6092806980348,16823.604385697832,1739.745838705556,1351.3821119086153,250.110047969428,2048.5993700448626,1987.7735742703262,16788.62857275724,1733.9024628675702,1333.9582113156873,231.60739774994408,2117.666481500908,1891.504419365586,16686.080305060183,1750.778144382676,1347.9879943568453,265.70009335330815,2038.777735949584,1707.8472130731177,16623.171326751883,1736.149095543549,1341.9061171880467,247.80403535515939,2065.2783935426096,1766.0315050992679,16996.70761181749,1741.9663012068086,1347.6325440116295,255.72686422892542
1992.0,1848.0,16780.0,1750.0,1320.0,263.0,2035.85585967332,1739.7586364729827,16818.377312892306,1731.480304429801,1299.810329945007,248.2440584705373,2052.7310969243263,2000.2778409140344,16804.3518876814,1732.868561590269,1292.2471005522489,278.94652525391007,1998.2885164640868,1845.2006086137883,16819.723650109117,1739.9384675726496,1301.214631258378,267.220724464018,1935.5354111632062,1817.0451962920429,16832.898908395935,1746.2909807252458,1330.6921007383478,253.52873556650962,1907.7114915414572,1747.1202419886504,16696.137826275262,1750.056504081402,1314.1238769182046,250.6687637097486,1975.1235194178953,1926.9505303209064,16774.776117598605,1746.8301043838896,1316.1152925287904,282.31055041842154,1843.6343417201426,1939.3785323738944,16806.629265882413,1748.5754754280242,1331.6025386326883,263.42753061474644,1964.723371675415,1787.6082343372796,16816.683700389112,1746.2470455660866,1331.656522246756,276.8898799347394,1915.064387608606,1655.9483361188231,16804.11381065396,1734.508203858359,1319.0502987411933,268.83782983372936,1994.9412495606155,1823.2448784979358,16669.608906208632,1744.5085565932404,1326.878999395627,261.8379834519302,2036.8930466645693,1873.7134143455248,16893.685001501002,1736.1101988965943,1315.333280120838,254.94857057660928
2032.0,1788.0,16704.0,1764.0,1361.0,271.0,2181.7209563613583,1739.4118315902297,16493.62915955333,1753.8677875133349,1345.3307096742053,276.2119208244659,2064.5820191862495,1822.4730303555802,16566.141713989684,1746.466844888527,1349.4896889724937,274.43927825011605,1939.399433646433,1817.4148464887496,16699.00712654922,1765.6644493519454,1349.8613765619289,271.50579868164243,2037.3007810040451,1941.3487909133717,16669.708017933975,1772.7308099447678,1366.5084531671955,269.16854741641384,2077.0989731854156,1740.6134685957184,16752.802012849985,1756.7873920482643,1365.1374259809672,271.8156203541472,1866.9761370813324,1883.5868816759178,16546.296946087197,1765.6571843386641,1349.6354408428758,275.87692282206,1847.270466932619,1786.8030298917174,16809.410950448168,1776.0109166274972,1369.6052440481621,275.63229485147934,1974.3850722725601,1801.3676490086918,16928.70072554904,1775.6606221390334,1351.406425733962,262.30645684106446,2007.0849757433166,1849.0584947843558,16655.901729885496,1775.3442782446582,1365.912697884621,266.45323748054426,2096.3366795640004,1719.086009533904,16794.804883077693,1795.8607011811196,1348.97614299718,238.04280558381285,2052.40056159987,1800.639290752358,16651.355579191943,1735.9028546362122,1350.7229968723286,281.1672744192824
2044.0,1800.0,16752.0,1761.0,1359.0,276.0,2069.844685094597,1710.0597886605738,16594.56135689154,1760.4509729846156,1384.396521704679,274.8202043657258,2019.4940254325288,1714.2724994187172,16832.007857884786,1751.0149734362724,1349.2024445444956,269.64793990916945,2082.4329701817287,1870.1643700638933,16726.838184831577,1764.7413021715527,1353.9181022085397,276.6949674030339,2018.6082239076097,1719.117686250011,16798.30578032631,1757.3678843458806,1355.8847243778496,275.4242217721287,2008.969096577033,1815.3395032320266,16801.090254900086,1769.3719487605629,1369.0517135346427,270.4978213384252,1972.16837454071,1866.6464610072355,16739.743720750772,1745.40890653128,1363.2617827200725,266.78738174417634,2125.1737910071315,1757.0729658810665,16903.044958698363,1765.7789380619342,1348.1029630766086,287.6623113766155,2185.590197037914,1723.2995567816024,16785.85069294595,1750.8225108706306,1368.8159911066418,270.25799613846266,2062.4675170677133,1943.7976793409046,17047.311396231522,1748.4235745725907,1367.8484578435227,286.7351667630482,1939.8889740478703,1962.4252502197207,16780.929604221685,1751.18950558344,1362.1787475344652,285.64069754499343,2001.3687329371521,1755.4321191216864,16721.894105487314,1757.96231683966,1376.8476305947588,274.01491237591455
2068.0,1800.0,16748.0,1743.0,1344.0,247.0,1835.5424839131888,1750.6489069560002,16825.045001148123,1720.8131878078866,1344.3509631637605,255.07015552326467,2106.1018838430464,1787.986794508483,16831.845614170295,1747.8617128510805,1343.932161548625,249.14167264849544,2280.282582187197,1984.0961812596483,16673.734098305402,1750.1098395191661,1338.7031905509132,238.3226281868051,1870.9467483269184,1825.4413163653837,16769.74465041858,1751.9781096365648,1325.7214939725368,216.4677045438566,1782.920964884242,1797.1313119295403,16747.38667626343,1718.9189878195543,1342.5347505813347,246.4522945138987,2077.8457871026476,1701.9660454105929,16746.12093087514,1744.4779359735405,1333.1186014215625,261.14299762534,2013.1811770944307,1626.966138689149,16641.868213418657,1747.0127919743472,1343.1703167508206,255.36376004515552,2082.420226834878,1643.0552295457944,16613.425270780255,1745.7673997379477,1328.4925592643906,256.43165490760015,1965.198199548079,1716.6929051812986,16801.93931794999,1726.7583091944257,1346.1062419058783,251.60862892678867,1971.6862447323556,1968.2695698353184,16774.339173822777,1747.671149063759,1341.231558042489,248.29708867229013,2164.509148461895,1614.152859810953,16854.90123778425,1744.4500058597605,1344.2712450207014,265.3377498779682
1968.0,1828.0,16756.0,1758.0,1336.0,242.0,1938.5561716557852,2066.101796433533,16763.83047188718,1750.777752512652,1310.8667353297335,247.72152328394205,1935.42939326869,1764.866342900725,16859.97150132005,1778.2559018784339,1344.140964793495,239.08716968375484,2077.379348717217,1938.647875514933,16797.874573855854,1773.219459557476,1328.5616150020473,237.89603187616223,2035.9558265653402,1679.36014713447,16724.82305678797,1752.6334971823896,1362.661972304884,250.05284097666063,2038.106247956881,2004.3412269786936,16786.69056367731,1768.7230185584845,1351.4943681751606,237.56669428735535,2064.4709944292517,1874.852323047822,16855.901610558325,1749.235181922718,1321.9972026759478,215.6434366987957,1977.9290726124593,1967.9102684430757,16674.067463783125,1739.0114536316253,1343.0884094395633,233.65793074188062,1918.5013434851187,1942.1927896171296,16857.694084338924,1743.3262145937076,1325.9538426057043,250.83631296704186,2159.860482231002,1897.386768749512,16792.64350180001,1751.7675002458489,1352.1267967658237,233.12971087075908,1940.1909634720232,1708.224027500159,16896.516246772917,1777.2131272306483,1313.8777705861814,250.55090529286676,2131.4009700955776,1977.4970540742772,16763.836078731416,1744.3974169883234,1337.5414948587793,225.761016705284
2036.0,1820.0,16752.0,1773.0,1423.0,237.0,1886.2549831950782,1811.4900642629495,16720.813028215725,1792.0680471508351,1416.663602756756,240.1402705499433,1871.9844261327305,1915.668567931384,16652.793746341275,1767.9999672535002,1420.749537778094,229.38190751013056,1922.714384795014,1777.356422373081,16710.21090967205,1790.9706443277219,1423.501733622293,250.934188963778,2013.9307128937612,1730.918060944028,16768.64335588077,1767.7934058601054,1438.5144271191537,242.0067251911882,2104.253328063695,1837.330216849473,16567.62721189053,1761.5613532694265,1428.0313663382258,238.1607223816944,2068.6359528424764,1631.3283306700514,16798.601529473526,1762.3151416582202,1413.8479750408071,228.25771366067082,2109.3435083395034,1779.8486618436657,16751.48418189538,1759.5850288161473,1441.5690730408307,243.2653797612753,1979.4948597676473,1766.0560411330684,16744.68293821029,1771.606689923808,1410.815958741023,255.9578037172513,2099.2215129367373,1927.084244836744,16736.8777866426,1770.6126190086802,1432.0211058476384,242.34388699556564,2019.1043712162727,2013.7471539910148,16873.928459331106,1764.4046598907694,1440.5241720751692,241.60570280161596,1954.3757161590686,1704.2842162128247,16797.73392810467,1771.9068090108235,1439.266714924542,228.4033112677934
1992.0,1764.0,16688.0,1780.0,1402.0,251.0,2004.822779256571,1835.0481455461002,16546.824659170095,1782.619336087499,1403.345397694519,231.30241467442045,1820.2205841568991,1680.9263843054257,16682.15255698778,1786.6118526107928,1399.617422899187,260.6894170099019,2135.715559197529,1755.1442294475878,16831.410693377096,1784.1377352309503,1406.6055424735875,247.28601573142475,1930.5711251719376,1792.6886989938214,16692.46199445059,1756.3866376667931,1421.9547910451688,259.5760977077571,1812.8564408012546,1881.9267131471083,16558.278973850778,1780.0952313392615,1399.8544399871457,260.53332149045735,1915.4986687378437,1826.0357910162106,16706.24272325062,1778.483786843446,1413.7418405709886,213.67314327896491,1807.1112160494545,1570.6834236194588,16732.784543063604,1788.4952651824892,1402.7124384278652,241.09250663649382,2098.621542846645,1625.0226965616177,16729.09096911086,1785.6403136347449,1407.4630169041436,265.5148294745157,2159.5724918336723,1913.3296184794494,16573.049950621396,1774.2091377694335,1401.2870539970095,259.2220408558305,1930.4771143829278,1823.586382467313,16526.935741531994,1795.1753461275962,1402.147353190289,274.4308411403407,1960.707465184048,1874.2935334596339,16602.223199511394,1776.2561597864835,1424.0007777799347,248.42172109906275
2060.0,1844.0,16780.0,1758.0,1330.0,287.0,1987.15069591314,1836.897557346256,16786.70203223855,1758.7084249829174,1334.976385143409,285.94658281496623,2005.9032254353074,1864.2889034076352,16950.021533595438,1754.8984062901368,1329.6954102115878,289.48666042313914,1881.8876365847243,1901.051436850617,16904.981655757874,1755.5909789862162,1319.556147125627,275.0670340921896,1932.1219428028926,1784.230867746099,16860.289520400154,1751.4299068505932,1334.0725108960837,298.41012678398926,1910.6294927224187,1823.6623666070052,16911.17288902064,1749.7306944344482,1330.2793856523806,288.17424766414814,2121.6132023123164,1649.6331539293499,16632.86766930892,1768.652203007457,1336.8531377203237,275.9045366297223,2082.4747663614967,1828.315312755068,16764.231788906167,1742.6820953882384,1332.5946197473274,289.9806473523193,2030.9623620099837,1909.8427725253878,16742.087752348172,1774.627055882117,1335.1937935812748,287.2625054978908,1911.435171200498,1737.2923405639986,16679.25809141671,1749.5581528945413,1338.559038413237,277.14143386190693,2192.1000086021713,1765.514239739588,16870.466962289065,1763.0945318069328,1350.2802727978396,276.11836851257897,2004.2937630655097,1732.5118783825067,16746.142447484704,1723.7399872253754,1334.1052128934202,280.15246546601963
2068.0,1844.0,16692.0,1719.0,1345.0,246.0,1948.100345074265,1924.0625775551443,16523.22650786763,1742.8649091746588,1349.7989330506248,228.6861260353608,1989.5928638001824,1747.911406995501,16582.616843928776,1724.3890852373313,1337.938328518159,245.30985025398354,2266.1534435044127,1792.678471699462,16789.111068675942,1700.654818735831,1339.976363183213,238.83145257843242,2035.9549797245254,1791.5500964651246,16640.218337679566,1704.6298359255704,1347.7997535358165,239.7782151614211,2025.7319436999353,1850.6191901116244,16535.933702930102,1719.0660467908585,1349.7102010979177,249.54801002693708,2010.9530614304176,1787.0921980062876,16735.944748642356,1715.0008606041552,1343.116076728615,256.8434053528235,2113.802501906706,1936.750649015217,16869.386368241194,1734.2279714618192,1334.8898326858807,232.4675750981899,2046.758604392204,1770.1300853262146,16732.08026350481,1717.8243842896304,1340.479993756748,239.10858407634427,1937.6795223018182,1925.915434391659,16675.279918732056,1716.6004334417887,1363.040845483,245.57563552569005,2089.0742966345374,1895.9232743026341,16557.404809906013,1728.0845988640026,1357.0605384237876,248.7210428149496,2166.614906435598,1883.8410632422374,16733.007996313114,1709.4308871999285,1348.756495725948,247.14452925779577
2032.0,1860.0,16768.0,1745.0,1353.0,265.0,2009.6761478547714,1946.7226316337637,16769.080795399044,1751.4839190023988,1374.9583168205256,258.84783952615163,1998.7319752777044,1784.7789040779212,16820.06311801689,1732.9407241650238,1346.1676165133663,269.6797450310514,2038.2453119180766,1811.4714562851864,16632.585614655585,1747.5554671364291,1345.9094045624495,273.69391236596584,1859.4921664136305,1875.1924573103406,16828.898664505352,1753.983738274346,1346.3236065245183,276.2540051701162,1896.8080636474565,1935.0209291646393,16770.113505300502,1752.7435819002164,1358.937098459854,259.57989911698826,2015.9050467216105,2010.9995961478376,16773.466288470285,1741.4035196095515,1361.3334920172838,271.79126193252443,2053.829858383132,1861.7998935543708,16855.619568270253,1748.363092547976,1350.5875752777722,265.46716898471425,1981.5555776578558,1851.7435543101444,16801.02033179143,1752.3379620880933,1333.0596537879462,262.97350146072927,2032.649976974473,1764.2213441121803,16601.681908246363,1752.5858211208429,1352.5752601891413,274.7171942049331,1930.843818748617,1894.9367691054258,16632.14557707286,1756.2628631643354,1347.4246986261328,268.77369601602715,2032.2236050302229,1869.017292776222,16622.643017492694,1750.4829391340506,1346.5540328876257,259.51230343246993
2080.0,1840.0,16728.0,1761.0,1325.0,274.0,2028.4977146976448,1971.8302658083755,16813.476390740758,1763.4010957470168,1344.4768312242754,296.5006493907689,2062.6036120903473,1772.5643637616008,16965.52601767739,1757.2563017528876,1328.1782710422635,274.1587026667359,1937.0129593635043,1598.4117398257015,16731.799914167503,1783.4937470761874,1328.2486292151068,259.88944675746444,2046.4145393204888,1837.688366544947,16726.902377668066,1754.986455867905,1314.2397742538972,270.56799664461033,2052.3194265884254,1921.0606708576424,16564.39994120254,1768.1598812116365,1333.982751659185,288.24451537106586,1990.0555723624998,1807.9054178668923,16593.533199566504,1741.8246786123684,1329.5878868661994,272.24879722963493,2184.259830439917,1895.0381557978312,16812.66075871619,1757.9044768868387,1340.2550921129757,258.65496683595705,2085.735768462396,1881.4513704881588,16849.03731837834,1757.583427731044,1333.1026736634844,276.29164533098736,2192.5876800473584,1803.402484600716,16820.66762270394,1762.892657313928,1327.2710601244153,271.04769369886804,2070.040474275199,1715.4459523159503,16692.071485435215,1746.6940581240283,1327.2783521115787,288.821046635887,2289.81867237709,2060.149523805057,16821.352678043542,1759.673044396899,1325.263715082022,279.39879234410256
2072.0,1824.0,16596.0,1753.0,1348.0,260.0,2209.4025550706165,1929.4747111512756,16584.208952393252,1762.2235414449747,1356.8817957902925,248.04952267171043,1995.5239063970355,1999.5108148398062,16517.95742650358,1757.6500411843908,1360.4489410585502,275.6522276363493,2065.2212071183653,1853.1629255097234,16585.293950037052,1746.8547437377376,1355.7650964019492,243.4907728698077,2139.5570713014954,1899.4791834080045,16709.926174338398,1762.1572220548712,1348.4357486264946,256.8603016587287,2087.9966975532825,1832.8994619791742,16513.948147863655,1749.249673010508,1353.4124142226199,263.35952507780775,2194.9883686251537,1633.9896926627791,16713.24459995161,1752.296462880831,1357.7941720325675,263.17480424401714,1933.3570552381084,1823.0278379727615,16479.57148879307,1736.000315978948,1361.1403725415169,263.6146245527675,2148.377798401019,1768.784009139497,16489.27538837376,1738.5759818003398,1343.778767185143,281.79820403840597,2039.4342352361912,1751.867274185793,16499.406240672866,1745.7151066954857,1353.7719866492494,264.1801251667173,2086.903137107482,1846.9108603290788,16566.152319643188,1747.8885610089533,1352.3847450129854,245.67149534114506,2039.7670553578162,1788.880812253665,16744.550342680388,1762.7217274653208,1342.9265328580034,266.5963398757077
2060.0,1808.0,16652.0,1773.0,1381.0,234.0,2040.7030948603763,1865.6239461710322,16653.39197612153,1777.6535675804162,1387.0383977770548,225.43344976588364,2042.33541872844,1813.7024848831722,16622.97812753553,1759.5929367465847,1381.4716822556757,242.7220797145448,2230.8240470856836,1804.3909782626604,16726.614455877618,1791.7407739886153,1381.157044779636,218.92106219730252,2064.207512919723,2040.369612978161,16695.748614659617,1785.9768903150498,1379.347093993375,234.7881474017193,1957.3710842590976,1837.391081477956,16526.85365034423,1774.0302307803597,1380.0418953578403,229.7192286313126,2016.596596812629,2012.731424660908,16548.130262617397,1777.354087441447,1373.2144557696784,226.41715595546555,2203.956699956599,1885.2105150471816,16709.930026043043,1778.0945009712225,1377.481889358699,224.19671547857388,2132.0567707901428,1819.5675490615401,16407.24148822233,1762.0457383610271,1380.8106186769649,220.5753821152137,1910.2482033272838,1824.5387712463398,16676.0893842923,1769.3056413674776,1386.4224861555772,232.9157036290896,2287.7813909956276,1898.7483471428363,16785.53894072579,1779.4032663774105,1376.424625274351,241.537591282645,1894.1316620689263,1706.093416688214,16728.672269941224,1766.5346294354715,1371.4205706147502,236.766887697379
2044.0,1828.0,16764.0,1745.0,1364.0,255.0,2204.0885081189977,1715.6635552952546,16764.555845041432,1757.4178281823556,1369.7362609825614,248.04143949974815,1900.332447748941,1943.670368332181,16798.341447181403,1752.304099253744,1373.542704915675,256.6180834367452,1896.0465311522717,1856.959586514757,16756.40822536106,1746.1270345745509,1386.511827400372,251.7996445912592,2187.9495265615037,1825.2470527456437,16955.6709660246,1747.6087482967891,1366.511604770531,247.12496345467397,1815.4025791031193,1898.2490294556164,16768.11316771967,1742.766157038054,1356.5016850234786,240.85869608999468,2117.4219996106854,1928.2498882780128,16832.377231472252,1746.9560720354857,1369.6896690750991,257.7573044957257,2099.8666819182886,1887.618599666039,16689.505882326033,1743.6277708528576,1369.4675841529693,249.3097721933667,1898.143361315906,1704.8666249665416,16734.165235822733,1733.8853266428607,1354.4551307818972,245.32777655309476,2039.208761688615,1813.7672117595594,16779.40886994379,1745.0344032772307,1352.5292888126,263.6972394441186,2145.0893321549765,1802.2059256026082,16781.73072906152,1745.6205680853684,1362.0879201915425,247.0443814699828,2044.102449047867,1766.439063033573,16836.47155171072,1741.165860948446,1373.9941371489617,264.8388596747676
2064.0,1800.0,16696.0,1745.0,1385.0,272.0,2170.486148124376,1631.2703056061725,16626.548511317793,1744.8437967280763,1379.6022432081788,259.0803785516623,1999.9774845161862,1842.5344670947045,16766.63448905847,1759.9578314807204,1403.9373978479457,287.31783075577323,2003.9515159294888,1844.9446220688912,16828.795517303188,1760.9060880169486,1386.694491975877,285.55021931005393,1926.6895914684947,1694.3602802179573,16835.419213148572,1739.9565973876738,1375.3602572308062,273.738221676454,2237.727584011898,1904.104236749895,16480.449718474203,1754.388090301433,1393.1694715004417,259.60542033485814,2055.724564630966,1828.869240508013,16508.63622459787,1738.917366161756,1378.0670171753145,271.90091325701434,2028.599741265417,1723.086284940503,16691.63897711666,1748.9893032492284,1384.4452983012582,267.3333010319243,1968.488287088507,1918.238113338894,16892.904636943887,1738.9247901147282,1399.2385218731574,267.0866899943498,1975.5894727886794,1812.3359519573519,16493.348423475385,1757.7063674314898,1379.312986696863,267.1752631773953,2130.9023967348235,1765.4174467554153,16828.349227159782,1758.9450929802688,1381.729248970973,255.23762309802396,1896.5668643997174,1766.437245685149,16684.426545787806,1745.2071896381942,1379.152737753483,260.2013603279073
2000.0,1788.0,16648.0,1755.0,1334.0,278.0,1817.7075143455972,1806.4997139566187,16620.148718216562,1760.7754774034288,1314.5292192298336,282.5417988159837,2009.7965387050165,2052.6576855336584,16622.487096126217,1747.1757521342217,1351.698052552652,268.79918236565146,1911.269422772274,1773.4522050417113,16695.73502869194,1736.3040102851464,1335.385969302681,281.65855330829567,2017.2785829770517,1729.9314538809308,16676.44128982402,1759.7676900632127,1328.1226478176557,292.3451776073961,1952.8680457041767,1779.0394163139135,16597.5401245501,1732.0593998640454,1309.0626679717595,285.48252755772074,2136.06375315694,1927.6072960712795,16697.396084628403,1764.0962005720926,1343.9028443060804,284.84009088846824,1926.9858255739193,1701.5674272654032,16657.741121813186,1743.6916230752886,1341.131368262716,275.52011744848295,1963.2691220359695,1679.8002132478239,16565.3782466467,1758.2545502548344,1339.6686083542731,287.7442556301214,1974.9586917062172,1654.2635619235618,16782.453996501947,1750.1069976977453,1319.8433872527,272.2650453029868,2036.3158543240743,1736.2358325025464,16657.03012768177,1751.1641058867738,1337.7831259465213,273.42709463562153,2179.2086134392343,1834.7639774434333,16542.17716971342,1764.7837886282612,1336.9722953746116,275.54050822207694
2004.0,1792.0,16664.0,1754.0,1366.0,263.0,1970.265557904274,1965.2584801162527,16805.507639389263,1724.8455463123669,1378.0408696953646,270.59613395678434,1962.7791311953952,1905.0865174290243,16660.875807437686,1750.8074616566116,1357.0311624328892,277.1788635685017,1891.0622343102066,1860.0959391497345,16458.50354878513,1769.0103313365194,1357.9281122046364,270.28088271769224,1913.8140741191903,1879.380245079015,16736.111214431832,1757.446840667361,1356.950486513182,261.65229524469083,1972.2746639007394,1835.6013476908556,16750.72040457604,1748.8559223928503,1371.2112507822242,274.7430336444362,2205.948209112312,1831.2675035996003,16703.575476952967,1760.2779878143886,1369.4131543451263,263.92409084941164,1911.0717676673448,1774.6271298527092,16494.36082362188,1746.5944099864992,1365.0520021456778,253.2465655023575,1959.4315614993789,1859.3784976852212,16569.484242281007,1744.362679744777,1358.1858388062315,272.8352443883521,1971.3765127635647,1893.0205707357297,16656.656274548637,1753.7558502883003,1363.974768673978,248.1978395752609,1991.6667128223137,1857.5969086068112,16600.11601768638,1764.82303047375,1351.2169453864133,294.6377577304428,2061.691488733483,1885.9136077207213,16891.438825639878,1757.3264350013083,1372.8170974943594,264.1549583604385
2064.0,1828.0,16692.0,1750.0,1334.0,267.0,2134.913489311393,1960.7872567919214,16562.03850726485,1738.0214869696479,1331.9343952841539,248.09404418099118,2090.317476190389,1677.7983372832273,16635.39016325698,1772.3941313945759,1336.3364805192934,256.4751700182772,2023.7260718815155,1977.4518429769842,16620.22324546241,1757.7327369638876,1350.2926118304779,266.5040409185305,1911.501374166956,1830.6416789193565,16708.269754515968,1738.117116867258,1339.2216241897522,267.78460921098616,1988.8702499157964,1710.671644856271,16695.141379726356,1745.2653722465204,1343.8084672892712,250.93628896992172,2034.457981990413,1982.6418205398531,16699.845954466422,1725.059061717552,1335.1721518232366,281.5771762845686,2043.63105161819,1920.892710072153,16790.302884158406,1746.9880057641958,1351.0767048288462,280.73471231070135,2099.861861776989,1612.8374172133695,16643.32084559125,1740.102052077884,1328.8186578810169,255.84361329514465,2163.7670481229015,1965.0346921252437,16753.08164689102,1748.5128769321511,1327.872938423301,266.6756612888427,2016.9374983552473,1956.9448152911466,16659.360315466034,1743.3323204146102,1329.2584452010756,270.3022928721197,2138.5097130209574,1985.5197151016487,16520.191713987853,1745.2436807519855,1344.521551350927,284.28492470693374
2096.0,1852.0,16600.0,1763.0,1355.0,244.0,2149.846862447811,1876.929694668377,16549.964295074595,1767.57456821023,1362.8806960481807,240.14482359711985,2103.709102768213,1783.7148364233487,16691.678664681243,1741.3593265032466,1365.0594011025735,224.8784750082331,1979.8226453438956,1836.8582143928083,16624.264432246055,1755.748290143143,1349.0581147148237,232.22924858918992,2034.4077850687502,1912.1921754091127,16530.685834312706,1751.8068175432818,1361.3143992636265,237.23568463170722,2236.652635024072,1822.7976022023258,16741.89355510232,1773.1939908324964,1363.5218631588816,243.0314960926268,2349.3189765970997,1982.6181462074117,16482.787654430856,1752.6869701710243,1355.7005501605165,249.9997264564231,1959.8634655678688,1857.7366496173545,16846.600602630526,1757.845798749317,1345.5188504687237,250.59147566564639,2122.8580440682013,1770.1566706480692,16598.85568727966,1782.1311015558967,1361.6442825492086,227.6245827004773,2026.7683758857136,1866.7215299105017,16560.923302094554,1753.0931023530272,1364.15606871782,244.85496105547105,2135.163509022724,1828.5881302679768,16633.92689722434,1766.260553486547,1349.1691170914276,248.69481186370032,2162.0594407127032,1879.224841634108,16603.94838175451,1772.561245922914,1363.094836288814,246.35697269344627
2024.0,1812.0,16672.0,1754.0,1342.0,297.0,2185.256461674572,1868.1182400314985,16737.81376626879,1745.071710583184,1336.5055292154966,318.1383204642566,2059.7809556180937,1764.6681018222193,16612.50064390281,1738.9547493955827,1346.8104413771423,292.94408500073587,1916.9324488119148,2074.708599461049,16667.655993576693,1760.322051679087,1365.507089967683,292.59473957774196,1940.520235836242,1944.4216439037855,16592.773737534175,1748.449440900036,1338.4225872864747,303.8474529878193,2062.9578737566394,1821.5587024344645,16596.446165722147,1731.5109673489408,1348.857468273511,304.93028340125284,2169.8847357632726,1776.1047187503182,16709.1988380993,1753.596523484609,1330.978915216969,295.3479196465423,1998.959510094924,1674.059883284387,16771.35571952608,1748.399499859543,1332.4889925902073,270.34420456675315,1977.9291907299014,1831.769752591375,16757.039980185076,1766.9875230673972,1350.9306734991358,297.69415356523564,2134.1566011157142,1738.5032080767496,16785.013382807876,1762.7929563468178,1349.9787057679719,290.01473757567453,1756.680856919715,1888.9941825283772,16632.2217624718,1743.4294185845301,1348.1119875577526,301.6971343334053,2017.540478600972,1927.9841900130232,16814.787865954528,1750.7042435369365,1348.9120262770562,311.89350177407215
2084.0,1804.0,16728.0,1759.0,1371.0,262.0,2081.775753741687,2058.38533499267,16671.451949695725,1748.805153377163,1355.5426183331576,254.89020290186033,2009.6528231612501,1846.525998377986,16541.19414793968,1764.442715720302,1378.3676605113412,281.4174482495481,1961.3308368637697,1905.2929915226484,16691.467995201918,1751.3645156943394,1368.4100214860514,272.69307520900406,2081.919277870757,1915.5219755216872,16772.2422796363,1756.360050129433,1379.1742197017268,255.09382142906423,1913.37676005038,1813.0568255386395,16851.62596096021,1772.6151736935544,1378.7765535261385,260.3652687002805,2046.3544189819468,1959.4552000014087,16526.181989025008,1775.7786128068483,1388.9317088200626,269.6152059961347,2277.8382594161426,1790.8888647195838,16710.66463772508,1764.5050249377073,1373.9250878048015,288.3780105751623,2187.3538640055463,1765.6994990553865,16810.936381422067,1757.7008569791963,1361.3124814134492,257.98002741685184,2116.581004777803,1591.017948779488,16717.19819085136,1763.2335927606953,1362.236114740086,258.50845085171244,2047.415652753085,1813.2194800079785,16741.807681906055,1757.9881236929116,1373.4988794299143,268.35046177226013,2024.1399849881602,1995.38139286883,16644.843537795165,1751.6622327150958,1372.1390916662692,263.04853086370576
2012.0,1820.0,16656.0,1744.0,1318.0,263.0,2050.759510766547,2008.502898275173,16525.93470417463,1733.5163435789304,1310.2522649380328,257.2642364873373,1971.0823856669895,1764.3031972406552,16614.61783506157,1746.090928647751,1323.4567695926623,270.5189510417728,2049.2448025906065,1869.2354427815353,16594.907063606897,1739.887893032755,1313.8389034081865,247.67178815171755,2022.7691008823042,1591.1825408458014,16596.34482522948,1749.7605143946107,1305.610895190253,272.48671774418506,1839.6858384764853,1705.283934253096,16460.436891503967,1728.4876788061667,1293.6648993451497,263.17182818828707,2098.6061694460727,1839.4353615317677,16698.597448301953,1733.5414176204185,1333.782529677002,268.02530335815334,2093.7992676128024,1845.118397195879,16739.234964392934,1723.7721802995482,1330.960281353598,258.9622678857534,2025.0737760984646,2116.5663657818804,16667.166330036373,1733.917717166127,1320.2023567415154,258.64861597671904,2177.7631670706,1869.5992898432057,16667.88202923972,1732.4233321657036,1323.688284909149,246.71803242452012,1869.6609820889191,1672.8488045843728,16722.13062177866,1751.2443812259191,1305.610638350493,266.03258499550384,1989.6079881644534,1782.397191372133,16567.120259631567,1769.1658450915681,1311.011686985244,263.63353341060264
2068.0,1828.0,16632.0,1758.0,1375.0,247.0,2206.5547977784518,1926.9637154408229,16576.259578661495,1739.8091101277842,1399.69663327642,235.59112700178395,2115.112982806169,1998.2713574224522,16565.029525378526,1761.1796734383438,1394.2406667793227,253.96076496197185,1875.5839912100785,1767.2393823595467,16633.437590721704,1771.7032561844278,1368.5886763087926,241.50315996203057,2111.2052663506493,1895.15412487143,16536.67873217111,1761.0626287321852,1392.919791699861,260.24948824900497,2011.8252009700261,1896.0675456074844,16721.1397909017,1757.305627030327,1379.6545849009335,230.14833200128726,2211.213870209504,1942.2631260948024,16595.939059359855,1753.2750131960115,1364.8193388776504,238.1106540944704,2006.7868320391387,1823.1195945538543,16753.84698211189,1756.2463484846069,1360.0390057014486,247.4434764305775,2005.7582459878631,1887.4558855638015,16538.85673917559,1759.4040388420838,1368.1022764539784,252.75571798269874,2315.8649800522926,1868.4028656888984,16682.639975835027,1739.3089827797369,1378.745415877227,237.66783300988834,1901.712220600217,1910.9522450488773,16566.721205223083,1771.6253393450554,1362.670774835827,251.15272111768004,2066.1885857958664,1900.4550859478761,16493.110236763197,1738.517376988026,1380.9006429981325,245.27552661782892
2092.0,1796.0,16784.0,1749.0,1380.0,268.0,1913.4850807326936,1781.804753031762,16829.62564060512,1767.5010550497893,1385.834487796587,263.1762882579426,2078.0543371185536,1622.4837336127425,16905.53509161612,1750.2615122706395,1372.3837880652998,241.64443701365462,2209.0250796630635,1890.1015117174923,16749.582832490294,1754.328938268428,1396.433426026099,268.05039750861465,2180.284828917959,1666.8946346685443,16745.078844759162,1756.967861193253,1370.5094873266883,266.75613966577373,2121.278315289517,1818.4947705371508,16851.697237230535,1747.6244539837141,1371.7623033763982,256.1907206725757,2045.301199744665,1835.6384076219356,16793.27904379512,1747.383793020287,1376.3752046469817,273.1528050354635,1987.2749852608501,1615.4590481922403,16789.35189775282,1750.9957697114814,1369.9193711967926,270.0041027120356,2301.4377972755733,1860.5355185996289,16689.099213820766,1759.4643163348428,1372.4944772975753,270.7235697452442,2135.667147362347,1909.1910601106358,16706.3737732343,1752.0474533279396,1371.0102052933687,287.4982445720028,2206.4590839456214,1890.8393276720728,16899.26226794854,1729.5958229812827,1391.0856154834169,261.08263919530697,2192.928018659195,1868.901169593355,16814.942244826445,1757.0859336252631,1390.5147118437753,277.37162528697667
2052.0,1768.0,16576.0,1754.0,1352.0,261.0,2045.1512835255871,1893.4702468559376,16634.03883954891,1738.5523478702046,1343.8575968293103,260.2915688855968,2141.7090037295093,1807.0516424954944,16522.91763698878,1750.1100778122225,1355.1538590471919,259.1358347119421,2117.2395551797376,1599.1662418017097,16486.82490736614,1756.9470291167663,1377.607580344932,246.67840692444298,2174.6558564111538,1842.738448868291,16332.28713112668,1748.4399722568157,1351.530069801053,257.4041106145546,1992.7369900422973,1819.0724468689446,16539.784829750053,1741.4551864148882,1361.9341382104706,276.81763621909204,2022.9891687927968,1761.0033599029794,16424.436551987597,1748.82461443014,1339.0177633598992,255.9515286209976,2071.781134136914,1993.5493437616578,16707.961909807316,1760.0021780182992,1351.1668992239522,244.26187571186836,2149.575483606807,1727.820610294285,16479.579627084986,1757.025851675501,1360.965498170713,239.069492001371,2089.226287914727,1873.6910027358247,16817.42464340487,1737.5041709327422,1348.842403450733,275.23570896082293,2073.8841941067867,1796.9720731353075,16476.50810821186,1756.457046455333,1351.6856388148358,266.3668203553371,1942.160283022793,1679.7686753093972,16638.08911743552,1754.381962389849,1361.2851936497534,272.272185082218
2052.0,1840.0,16656.0,1759.0,1348.0,262.0,2101.337807526244,1646.875652259731,16726.515521865742,1772.9527077037767,1329.8635327870445,246.17674089852642,2072.9472324215717,1979.1451505476884,16692.082009687314,1760.0415499935882,1351.4281643696343,276.11336271406566,2133.1246752348134,1691.7623448899644,16547.44343616513,1765.5911170923698,1358.2649228089683,248.01119520544017,2321.8244583961978,1900.9624467687752,16682.330405547706,1747.516748853294,1352.3488246966779,272.43948752916384,2046.5700565644447,1816.8997373483576,16719.880232513333,1772.6784619405507,1327.452004713705,249.067355941826,1894.2295691270704,1824.05426644357,16790.92606252968,1779.8257580835316,1338.7013553442619,267.72171582121797,2133.999100979638,1807.6753146890574,16754.11354368964,1752.4292212800221,1333.7757381582333,270.0699003841614,2069.152490012791,1899.2295160311405,16700.714655408985,1750.9681061756307,1357.2615470615133,256.6606939793884,2057.4438354490135,1999.1935315845033,16594.182592833193,1749.6187033423687,1356.5565070257933,268.55364156812897,1818.6863574922634,2114.15336321432,16535.339648674955,1773.3655391543841,1339.0732934087082,275.37059246366556,2070.8887632007163,1857.0634143850102,16464.287723536792,1761.101387849228,1339.0784048011726,260.249265262764
2096.0,1768.0,16604.0,1754.0,1395.0,258.0,2135.2347395018405,1882.3471017746124,16581.66319064583,1747.506206159439,1390.1134255044321,260.20576809009685,1941.0968408063372,1678.3429821528177,16519.200201135223,1756.5464581537174,1399.4970131754576,243.96754827489087,1985.9194360938104,1625.9889851953794,16487.781717402297,1750.5112849410446,1403.351016929004,252.15730435317425,1971.6813527033057,1770.9667130777489,16507.578491983633,1752.5664272621818,1392.4749250477803,257.73875519784974,2111.577637961041,1670.2530164954785,16668.737473663055,1753.2193424373754,1383.2389630780197,261.2587030652536,2020.1427496183003,1673.7819696129918,16702.210719082672,1760.8456752027464,1392.5194058685222,252.67561585990728,2066.421100790494,1583.450488573808,16667.601508663767,1755.400379104296,1389.978067325378,256.10083050061786,2095.296842759239,1934.934790858068,16681.044947319864,1738.3000822201195,1394.270917258141,253.82138685973075,2244.23912025474,1876.3572707042883,16583.869861200026,1745.9111281249839,1399.2293390864445,262.4901357979689,2145.5405380905495,1655.2656984327164,16641.563796687788,1767.2912522013214,1398.0898295666677,261.4108612890571,2067.3088034320854,1914.2010084169317,16658.087575771835,1757.6079716928232,1405.805796913856,269.11147009941214
2016.0,1824.0,16752.0,1773.0,1351.0,273.0,1985.0292477976582,1702.8672891759948,16803.686506258888,1784.4502797606697,1329.7090880355006,259.1010176684095,1996.2963546851752,1817.102899921154,16776.625853726084,1763.3520574559202,1364.7690390124483,261.00103234566257,2158.6704515425436,1777.0742145272063,16787.180715109906,1772.9861426403847,1341.676662098658,272.86136927231644,1987.1775789367462,1874.1566655646375,16874.267310614352,1761.9587518008016,1348.9935200477203,265.0665009405081,1988.5383907115574,1709.9566975343034,16782.98461752611,1786.760506158005,1357.1046093630666,276.3643082312966,1862.9188726102732,2007.204363584673,16928.943972914833,1758.9260137005926,1352.9568757781199,276.4647010795875,2080.986687626236,1800.4655762305847,16845.57524082148,1759.4935214622703,1363.6833417175565,266.04896863772683,1960.7893683373736,1972.375095318053,16767.109122434136,1765.9974008502825,1342.5795007172273,280.41919311388443,2056.776102665948,1939.6947569868796,16771.499639942092,1772.5912623657432,1339.3205801830707,282.7224255073598,2107.2946752342277,1725.3104780399728,16835.1353493779,1773.408027403251,1351.2395799162555,272.1368412395817,2044.9296255168967,1777.1193303176226,16701.492597014272,1757.0965057164733,1365.506832746684,284.24961374731714
2108.0,1816.0,16748.0,1784.0,1349.0,273.0,2219.335801751827,1788.9917460057795,16797.82350666521,1762.6259854789387,1330.642668632283,288.40294865331384,2083.3214339192623,1824.1405158067041,16803.319354218267,1797.2669179474515,1364.352408365203,278.52756119155214,2236.6978300169794,1839.110597627015,16801.20235498781,1785.559973680966,1357.0744064852372,275.55632387671517,2110.5234604448906,1738.186255397877,16822.414917136553,1782.2773180890665,1350.4144225465923,271.16220448836924,2282.39252498807,1769.472117444541,16718.822265878527,1781.3789131593776,1362.0404081068664,281.57237496210917,2029.3702992296312,1672.7476246058948,16613.87866725192,1792.4168159864075,1353.5671304157258,283.6781159031828,2195.843830530889,1768.0678609110387,16827.54465038671,1782.305198438756,1357.5026232136913,285.0270998143423,2127.1894280084534,1789.91194713554,16569.75199837827,1778.1244609098292,1341.1655780174171,277.162429917233,2223.5647121477377,1678.9564595885072,16813.775198211348,1790.1556570434655,1358.8316727533643,284.9978091752959,2208.5757188634675,1921.994422556111,16718.28110850285,1785.4489883887454,1347.6025677772461,258.28374598151805,2122.6553261580134,1922.9006049094903,16606.377580963108,1807.364313238673,1360.7352513461751,276.0969831064983
2072.0,1800.0,16720.0,1769.0,1365.0,259.0,2104.8048110649197,1831.1853377160746,16876.26725326341,1772.0692560866644,1368.5971153508285,264.0657342165316,2212.363166484487,1786.0959214705574,16788.673381046367,1768.502832827886,1363.0499394259912,269.43041465811126,2022.6862715817017,1753.2292637747748,16533.691512304682,1776.5189339753395,1361.931989632527,262.4830014779094,1985.0962718516744,1890.6956852146645,16714.79397482026,1765.121354836012,1364.6536594329498,267.7805136151236,1997.010031608845,1645.5710698317039,16581.178720756685,1762.541027039044,1361.565177716311,258.8552665185713,2098.3556858553675,1657.1518772689412,16796.63625037018,1771.118485877631,1356.2862427595242,256.2405206025266,2177.399000243132,1877.8664055002662,16747.051662026257,1758.0575727127898,1374.4352584916678,252.1904802657222,2015.3371289617482,1938.856004401425,16618.45694660757,1780.7601031268796,1373.540047259162,258.21635347149515,1931.8150427941869,1856.07869549309,16738.65795179327,1776.419117242518,1380.8629263024086,254.4593819591149,2050.2665173902606,1789.2195692704531,16706.88297327395,1769.8186336847973,1376.0380047524345,263.39150856205663,1968.760482315525,1867.6132835182689,16477.759697591056,1767.586778515872,1372.8481505991329,261.1570113378109
2060.0,1884.0,16744.0,1778.0,1364.0,291.0,2004.2014390181505,1969.7665181531045,16618.539945027365,1791.4998752029674,1367.9787508860932,307.11644057924735,2135.463870251574,1772.7474775048668,16732.15061540231,1779.385090917618,1352.6528611929893,289.1877925117421,2164.6511109530493,1808.7938254721216,16587.48810429788,1779.4604822500528,1353.4632030989044,297.9378798982198,1919.3794783165035,1930.3936475643848,16733.596836654706,1771.4958979615378,1357.5787100367809,304.8677519218793,1924.0588230070186,1941.2745687204788,16702.77991664678,1770.7454953236156,1348.1771780259962,305.7054969897986,2061.7970455343984,1987.0876504226273,16803.293347121507,1773.0887108085533,1397.6520683076276,285.1150327243732,2059.6003328443567,1941.383867337799,16756.76712878642,1780.3922902804538,1359.003078853977,291.8928219617499,2004.6575625816938,1770.5759178051762,16799.16375271597,1770.0631279929494,1368.5035949806577,281.5689794228125,2007.9455716487694,1976.636913800573,16680.39142967042,1792.8697165605681,1366.9437997459613,282.4208397564,2070.2053746758215,1931.412694915012,16847.452295900537,1787.3218740281382,1390.08736973559,290.37749096368753,2339.444035233175,1744.408254107937,16598.643469558232,1779.13339982542,1352.6827475266336,290.6235319213442
2116.0,1772.0,16708.0,1721.0,1339.0,258.0,2204.138992453872,1935.403606093949,16628.890018959144,1715.7122138479556,1342.2620883384807,247.3449525016394,1934.513582493204,1917.8311146362528,16753.50704317658,1721.3469416845203,1341.925327628392,239.22908549495577,2431.8034362889666,1745.5493767955904,16801.00116669405,1716.5992023540555,1343.0401274803432,259.36360405999375,1976.2808156908402,1972.1305541113766,16750.296651399647,1743.0804010653435,1339.3185570831113,266.3192200831959,2218.104424306675,1649.2167970618525,16700.45750175724,1714.6268654435708,1354.1570784278372,258.7423028547161,2161.7922202332734,1691.5840082330328,16690.482121125577,1726.9655681470142,1349.864510892855,255.6375973317108,2118.365275888851,1822.8728877121196,16642.60672844752,1713.7804870813704,1337.2364052255532,265.77678528386764,2269.7197064301017,1588.5159398567466,16825.075599231383,1706.6381751798071,1339.8275781777527,239.4552385957326,2099.3586479293754,1581.4009094967867,16810.907624063202,1737.4214810663398,1342.6960056680573,257.2883819823417,2015.3772641086528,1689.284325443475,16681.42023220987,1730.2747562928666,1357.5936270220695,268.0341731094622,2119.275479423015,1891.0512299999261,16712.733840485795,1720.3360059234276,1360.8439047245847,251.53988831423487
2060.0,1788.0,16728.0,1769.0,1336.0,251.0,2019.7042093133136,1797.8758881124254,16763.266026466772,1768.6125484846286,1341.365921112629,275.26532782657534,2120.4755412289264,1686.103917921978,16648.29053229993,1772.042873139411,1328.5367013038713,234.28679129915417,2152.2324722917747,1694.889247772935,16657.59516759709,1776.6932712841003,1340.1055753774542,255.7938962958903,1906.7247155306773,1759.314250329052,16592.095950954397,1779.711839448167,1355.7004103536094,243.64387035911741,2149.517233418464,1718.2686346593787,16813.549065053976,1766.8446249436463,1326.31398584759,247.43362294721092,2113.2911164430884,1727.2296696413403,16673.62885454662,1769.5759512500142,1355.7085281846348,257.19394918924314,2037.3658343183374,1693.6955904473662,16664.85719350658,1763.1746741596808,1342.8153880071275,250.02886536845696,1930.381302777708,1665.0632166735224,16755.539974274052,1772.5653570041127,1336.2425020333776,248.4485645501688,2239.8676167316275,1899.573392121545,16674.13350998961,1767.7190207895997,1330.776024885521,248.98201116110818,2291.3122881082263,1973.0594266034582,16869.983246413954,1772.804413350856,1332.80077941993,257.965993369165,1987.2506564896821,1851.6446325922188,16703.31010477316,1778.4240167899377,1338.8371540261141,258.3774902467128
2140.0,1756.0,16672.0,1754.0,1363.0,249.0,2108.251796873524,1562.2806264685296,16558.74471413254,1765.7649253273312,1359.7115060731587,239.37230286587936,2210.150216134686,1828.985242206399,16765.847243785334,1773.5861907028861,1347.7197429198561,247.97736909752368,2071.808027467215,1821.969221674988,16525.523983365474,1758.4689123060652,1363.2916324788107,242.49899232412793,2156.437433873167,1775.289694442793,16633.126219873862,1764.5865202377304,1353.3407745239374,254.0261428396091,2210.1724022786725,1708.0895192055862,16629.280907636297,1759.4869954936037,1361.4659186486376,251.62836188952002,2169.5352546935314,1804.9931969632928,16757.84854932904,1751.2977447506876,1358.4885793192045,256.0070316357521,2166.6239486594363,1672.838437725488,16480.15166328379,1737.7529091002173,1351.0984226647142,251.19415151598912,2207.374050524387,1675.6336541249857,16582.541234094566,1748.5444328764345,1365.9191312897383,257.48723826933747,2273.4225589570897,1762.661132107654,16696.575272666214,1761.099950211953,1347.8336425270159,248.43550478399783,2111.9242671788293,1802.5275267339673,16588.549094492628,1744.3902266585426,1366.8228534776138,252.44034645982018,2109.9342829450534,1855.1342667567085,16622.591071076782,1761.2450165044997,1367.7548040630186,237.3571777191246
2084.0,1808.0,16664.0,1806.0,1362.0,293.0,2051.0558835715187,1963.8163885710578,16813.403258278748,1819.530131093192,1362.6800054310515,290.9001095970097,2238.8964631483186,1904.6195517488634,16784.20377861877,1819.9656549108543,1347.7099655894565,281.19619514793607,2119.093781545058,1700.1182999430061,16618.063198254196,1800.1250020089137,1368.0590403972767,283.57265189052464,2252.3160314415277,1825.658960035437,16790.698666671073,1792.9954985350453,1380.4087581216152,314.78156373472757,1909.4171282973648,1733.987300503191,16682.761469603338,1799.0120642102877,1355.1551809557568,293.28367273305696,2213.8298145821846,1898.6709481997486,16700.87941103423,1810.6956207934234,1370.2031463609962,291.2109847811936,1995.949461561381,1938.7030584880497,16651.176287423445,1798.1842112985053,1338.015640584146,289.2193685676756,1874.0640673269809,1834.051239066566,16780.174303777887,1795.0107853168572,1371.1364012865347,294.23497760516136,2152.7732017089247,1730.363033345244,16738.059997332555,1803.727130030322,1380.5416655909423,293.8280760006118,2189.9587754998015,1891.0180153983047,16763.03956492608,1818.8792208857121,1358.2384543925389,273.2608305200738,2273.639971843409,1697.8596799511652,16539.092596445542,1816.1827585268222,1355.3876342704914,306.1081353960287
2104.0,1812.0,16672.0,1747.0,1353.0,273.0,2146.100130701429,1784.4390176519341,16666.25850904974,1754.2613015277718,1342.2169401631847,261.21879783964744,1946.0097721687844,1898.3688324206544,16534.098794198948,1735.673467626607,1356.3318871855984,281.4334049627235,2061.12542107293,1923.3604923451742,16707.620081807145,1755.3572505153818,1336.872316685867,277.1765121473303,2200.375463452427,1783.0254748434074,16672.585697232218,1751.6341241053913,1344.319721015116,282.7647236217569,2016.6676079583895,1753.3283044612308,16588.326694602947,1743.5761107861265,1337.4542683437837,263.0241423025028,2090.964712388216,1749.3978577322548,16810.216126729058,1751.6819096605896,1354.428091458489,268.60083397125356,2070.964034370972,1723.88663034149,16622.17074046492,1740.580693850885,1336.8779992015172,268.50404062386593,2179.4863462226585,1805.7723704882724,16691.501321551845,1735.7643704285654,1364.962728322922,264.6309274569255,2045.7808337897957,1881.460884282831,16626.404974742723,1732.0830977691778,1360.1753771274352,284.85031295779095,2040.9904096265257,1917.2512837056167,16801.101638481392,1751.332943300716,1355.4170049505717,271.9175923084529,2084.4354297796826,1887.5219324517443,16897.458758508,1759.3588508920718,1355.1815983918584,269.8979003501284
2104.0,1784.0,16728.0,1759.0,1368.0,277.0,1886.4545185691695,1908.8590025194746,16788.125008079493,1757.5284891823842,1375.5034292476234,298.39740492386727,2060.138830897086,1739.1008419855987,16724.040303636244,1747.2894893459911,1355.6756611514943,271.52115350049917,2148.7290406990805,1862.2699108893664,16543.487096580433,1768.3614377975757,1365.8958716756154,258.58289082514835,1972.1188795661835,1881.2958879998303,16683.453499354124,1764.336884055375,1375.9285771738512,266.1543454689214,2192.7953266162594,1839.756301884829,16552.275295750285,1769.0562810287556,1394.8472708260153,273.24318338245837,2103.111541314421,1793.489613873743,16444.9813881931,1760.3873396127515,1360.062985674215,280.64672632488646,2305.0435155502983,1751.5545656494064,16783.51846868376,1754.9019447476596,1367.8708712882114,277.69537158651605,2106.09593894504,1610.875943642251,16614.489898577107,1770.2372677325106,1357.2637922097904,274.0332703754694,2034.3907255029712,1769.0543649620313,16567.470793575354,1751.5967222338409,1370.898284979677,279.5012420964945,2167.53898300694,1854.6844497724057,16622.35660158238,1771.7686737699694,1375.8842366090275,275.6183054776092,2101.914036451312,1788.0983801651378,16752.060375824396,1771.994861171505,1367.5947458913977,277.31497539621705
2028.0,1824.0,16652.0,1760.0,1390.0,267.0,2079.8236377518588,1894.0520024361774,16430.064334888935,1762.1925067291802,1376.5499433203172,239.21775614714798,2085.8751308187266,1906.6021332032794,16604.00036283706,1771.653486401072,1391.4426868351986,278.2648674718738,1828.2655698170797,1946.667164750688,16509.28249556855,1772.1267786760388,1400.5370457368288,270.70374076680235,1988.4496867072976,1796.1388020836134,16781.105827514777,1762.627793359652,1396.224510968434,242.58712615074933,1947.7972820128102,1914.8358988891714,16503.33851055911,1770.5109016727026,1387.8418809544787,272.09217114307745,2070.266250085572,1806.6815352148926,16719.2381768793,1751.5001037521442,1410.8110646880523,262.0568535084378,1962.0387881946829,1735.3538292594367,16596.038624857378,1763.3754918295656,1405.4131613998593,253.19386980695938,1921.232748350463,1828.128195898945,16635.987610756616,1756.7145962799304,1403.0870507646332,282.31641477516047,1906.0759733112527,1846.702402106048,16679.509062623638,1765.618523031002,1391.4860864219575,280.6190163210112,2074.626324966596,1850.8266769616755,16875.872595970366,1762.5697419322228,1400.8298791085938,280.4043078132588,1898.8419523310706,1780.2467900962192,16742.85896606506,1750.7068776596152,1404.705792870991,287.4219337327984
2068.0,1816.0,16632.0,1772.0,1378.0,270.0,2173.6602721295462,1754.8502161548693,16485.122917296074,1772.2819327458567,1369.8856641081104,276.37159793223384,1862.7088849155055,1734.2242209386848,16554.902131621006,1771.4686415114897,1366.6274697395172,278.4397455176732,1910.5788827686592,1673.2848906499598,16525.720304676255,1772.6757031506456,1395.7720775244272,270.3739573893654,2030.870040039072,1939.5157845275467,16823.573652314783,1776.0362423365366,1393.4137593614487,263.0049036634734,2137.8973071944715,1764.3992863468159,16607.23967494895,1785.9397714361216,1388.9846035172695,263.38997767112755,2065.3525376476614,1905.9799039919587,16449.305894826208,1759.8696019889003,1385.17663202193,274.3557939471141,1859.0490516989123,1897.9121896277604,16650.57262650006,1751.645130566845,1371.0634089876426,279.3138156140993,2125.9963747720003,1865.6878028204167,16641.467583901132,1755.2178010674277,1374.224116473629,254.81156285986955,2119.290874947112,1917.8603175509231,16433.46107248452,1772.001919894864,1380.4301834187181,278.9578726121876,2174.6960797083348,1893.3568474695155,16528.604258704672,1781.8826033799733,1376.7430609051605,281.19867276836743,2083.6871209182605,1877.1962452726625,16593.981628689442,1778.1330138240262,1381.2949032533152,268.27747325577144
2080.0,1780.0,16724.0,1748.0,1329.0,272.0,2095.595642603028,1807.9085885091808,16669.611175889033,1751.6389059446863,1323.2638219683695,267.1249746086839,2043.804072596343,1862.468341268691,16631.068988829546,1750.8814972578289,1319.8914253903295,255.07401644298957,2135.5754850387216,1780.1516667572478,16743.097636433722,1746.641952592436,1325.0571246980116,269.8128916657297,1971.6386874781574,1808.895715628331,16999.581304124305,1740.5157058802938,1323.4848638701408,271.9108114729608,1923.5219229392571,1903.8936531783631,16493.92671392048,1757.3823286843765,1321.236033502581,262.0130536890739,2228.822343600852,1794.7068488071916,16649.248142357486,1757.186258635188,1321.7940245269829,283.7666438626701,2131.7157946211964,1798.2225204049796,16694.59056744558,1746.951201952975,1324.1936651751437,269.29240843578486,2137.5188896796103,1715.4592915265032,16755.54541231262,1746.8891929972726,1332.4153266130309,262.19297291661206,1945.8129714568215,1776.5623052669216,16611.422480540907,1744.6709730600576,1321.8079992808086,283.1467590885918,2257.809545322189,1691.377820388375,16717.972442780683,1750.9103213875678,1323.964343274586,272.57460000971076,1953.4311220501495,1750.9987852000952,16614.695407005398,1757.66878336772,1328.3126672644926,267.4494022933569
2088.0,1916.0,16704.0,1805.0,1363.0,264.0,2244.134889489701,2042.2285359041348,16780.765468569294,1804.0197558052837,1374.4709375358993,267.44369326251143,2143.5359979520395,1821.8487072766588,16509.90591912946,1795.0576149284627,1373.874342187336,251.61701150848575,2186.6764970233976,1908.4159770739184,16598.771397627053,1810.4438350530984,1372.696929343273,266.9489814730374,2161.2349985342425,1828.7777473090443,16738.60716854229,1800.460085002012,1359.955842617512,292.8133020001824,2086.277542008497,1852.4910237163585,16625.053033523807,1831.0145747233994,1371.328602261621,266.70212391084425,2068.1694077780085,1901.8840501994155,16761.01880520896,1801.0220844965038,1371.8505286249367,271.9935787519251,1905.3264908109104,2053.2366511139335,16693.480554178783,1791.9383145616325,1379.190857669868,266.95387670272476,2048.5286947106606,1842.4398492303415,16802.33398039403,1800.4516102004109,1365.4588275366234,266.974963452984,1975.5728026457095,1934.4638602840557,16644.29692055438,1808.028852704267,1366.496186054828,261.86087288060907,2111.4984564620427,1849.512581208957,16772.37729994458,1802.1183158441686,1367.9872184832734,273.324189898774,2118.592072215628,2093.086007791413,16634.81780011968,1799.1637257896098,1357.336449393981,252.31603398136335
2004.0,1768.0,16652.0,1734.0,1337.0,280.0,1896.4107408894017,1615.0505135833132,16540.575029375883,1738.7214829890622,1346.6030880828946,275.4766768404567,1901.7026115986307,1738.9674487613347,16472.982136506093,1711.5600019421631,1328.344135850673,292.2688265167278,2088.1208993050154,1860.3678897267675,16768.278315117463,1738.211835977895,1335.6506805266918,270.8507445717271,2126.837661413254,1612.2942421482117,16602.664093995376,1726.7407917983728,1340.2327191841725,279.7678669171487,1972.759191231726,1740.710337485176,16709.411105124786,1735.161471128492,1348.4852335508695,278.4759728031476,2073.8991574818615,1800.6726193218888,16440.877875064874,1727.5131592598711,1342.7915958037631,284.15646321359503,1883.8070831368902,1680.6964862312673,16696.019719761305,1716.0730027846043,1322.7962138307053,293.14316206557424,2082.7182419111996,1851.9125956854527,16695.19636136569,1752.415475035108,1315.1279517484734,265.87514938376853,1940.5542897941064,1857.5721595589725,16432.682676745073,1721.8127553728366,1339.695304083565,285.70808401111503,1958.2207620525367,1904.6948581859024,16621.223035913208,1724.356060703182,1344.1911985263753,294.9656086887272,1817.3776038643973,1768.1563430900496,16766.264975603557,1715.4426164380513,1338.7608345550007,278.41157383045083
2104.0,1828.0,16720.0,1747.0,1351.0,268.0,2129.399287858471,1738.0288139882332,16763.624990612505,1748.2253941963586,1341.5334896292532,253.68608404513975,2036.738741124668,1767.5603234918156,16934.344711539517,1743.3046306976637,1365.577500331008,276.51617198623575,2225.6011506790574,1907.238391014119,16744.42871692673,1738.947937931928,1328.9357704121805,266.8772717157594,2099.7567961068326,1847.2162510145668,16794.25418187852,1735.6622527542906,1345.5024113343386,261.36130739245226,2238.4301363435293,1781.2135967101588,16603.285265660088,1765.0995996409072,1355.3013032522772,273.2990046078697,2232.128800971445,1852.407901796042,16848.447082148978,1737.0848644236944,1345.3726119781843,264.17556197944276,2252.540929605245,1821.66557807016,16583.979873177763,1748.763688805903,1347.7176685650252,270.2145812241965,2085.934142019537,1979.9879735845182,16680.043525211113,1755.1644966130486,1347.4326084561224,256.9235318913601,2301.3575006418696,1761.6271690549154,16810.73910441977,1740.1568344318598,1372.1951369570077,270.69625049645185,2256.0396643336753,1852.8657972908204,16677.467094097516,1759.9093572088211,1361.27992804139,260.6850005545115,2083.866422041652,1776.434252068862,16766.008429223595,1741.0205058217912,1348.1740634495038,261.1387385609079
2036.0,1784.0,16652.0,1788.0,1343.0,280.0,1848.3275798289787,1889.620550523075,16531.547485464023,1795.4710730816175,1348.56591943059,287.3406978381204,1964.0308993063366,1723.7032272800586,16562.213448574617,1777.2356365901505,1351.05368603031,266.84168059156224,2030.660370976823,1833.7651533587425,16742.120638808265,1780.6170970389426,1351.04339125275,282.88708025517053,2029.3926240687151,1790.053529836859,16654.62033837763,1769.8796336434793,1338.0238592303826,302.0552884377372,2199.059738032086,1906.0883464822048,16708.736101731563,1796.0642997384439,1354.6445243831743,271.203224665789,1968.2786674334068,1702.6723935364587,16555.205172607722,1799.7410887257975,1336.760386396782,287.1274012745373,1964.4190426739265,1731.450710729248,16717.13013682038,1769.3176162871844,1352.9664194702207,293.023872303705,2039.9687316514935,1669.1593977640498,16606.607106993124,1784.7656882280126,1343.178566449972,283.9023221874857,1976.1155134121534,1811.4288164890122,16599.766564104862,1776.9714274324733,1321.8805537348323,287.65170345470466,1946.2564907773874,1836.4871209619387,16788.057662259063,1774.0831582018334,1346.8118200041574,279.5695874283157,1997.6046274878533,1780.8402262394416,16675.236272816408,1803.929715806532,1339.9728674990795,290.50921608195387
2032.0,1796.0,16688.0,1766.0,1387.0,267.0,2004.223780858754,1956.3893910530803,16712.746965832353,1770.7658803239601,1381.4532598529076,262.97800008361406,2044.5828186145811,1777.6816138751235,16848.888040085152,1772.5308761233769,1395.2757627388949,255.9539095091164,2043.5547676419694,1976.541508438838,16733.93182304764,1762.813770251258,1390.4185562962389,259.19111554381124,2139.648188092675,1824.6129937501516,16782.608430970886,1755.7659401578967,1388.493034042143,265.48761333677,2069.609187365641,1780.0087376900947,16715.64197834859,1768.840736370315,1386.5799316599955,278.6821418709846,1861.012824255825,2003.236034682795,16754.894555959254,1774.7511792355533,1373.0680115733933,257.56746015693597,2003.6229046571377,1700.1547846388137,16720.156981104334,1766.7350184700333,1387.1629578336185,263.90339505551356,2076.305893765158,1774.373756520723,16704.379328735446,1760.4447850007618,1366.257496076881,260.9909077815703,1885.3617720218647,1825.610417886159,16731.154794488804,1778.0905799794969,1382.8320174770881,269.8320618251297,2030.581214337986,1697.5148439124093,16425.389622203344,1755.4689038841907,1395.9886720992533,266.27873460527735,2005.6403666209237,1846.037255346635,16641.34086817611,1768.3184303745832,1380.7542322838713,280.7808876304925
2032.0,1812.0,16688.0,1756.0,1350.0,269.0,2093.2129041733006,1553.2861673912796,16618.32519105739,1776.9706746407674,1350.5200784090168,267.4634441065682,2207.139495893084,1840.4436453448916,16618.65222102993,1751.8752584839895,1368.433273968348,267.4860538439436,2094.381478315798,1868.8666032089923,16832.05391387501,1756.3200764077915,1344.2224316946474,264.4410948166801,2069.741305154758,1789.8707069102454,16613.036752170396,1743.8333009365317,1356.756997484545,265.26895280948554,2028.957611296466,1859.5572661134522,16634.486677200828,1751.2804710081987,1354.2669800697229,278.7988522327377,1873.7898499344146,1889.3406600889887,16892.16418601382,1748.845134817078,1340.5442262207887,270.47021728651424,2169.542647699261,1609.866987242047,16677.50582169808,1761.057040074467,1338.1855691487071,266.42372641391194,2159.1894298943507,1797.73809047225,16800.355667911786,1758.9453389557448,1365.0780063329241,281.14805425327546,1967.7202836505176,1711.8731215203377,16623.268078058067,1750.464461730731,1340.7341995157897,270.86339564189535,2036.945016914591,1754.2361853430689,16588.109311435193,1740.7541517475815,1334.3668861892581,269.595793305946,2105.97644154239,1847.9871093591926,16623.433690630758,1741.0920128059786,1348.6408089687309,275.1308990048793
2060.0,1800.0,16636.0,1769.0,1374.0,231.0,2152.547963160288,1753.7862840277614,16704.835718846807,1763.0624684789066,1366.338616059333,218.06336104848032,1955.1052490446432,1769.4546543785764,16401.508616154304,1771.363547407237,1368.9366944989151,223.80984017303703,2122.036970055116,1782.1390649770958,16703.66861729969,1775.5600104837627,1374.9544667537662,220.5767151535261,2096.1427544836165,1819.829296376332,16803.833766121275,1769.2294208442736,1370.1743943887318,227.8914027471918,2316.852954873283,1607.5823625503353,16661.959233638496,1763.9318339706747,1367.5594930560844,218.99632084644858,1932.9463392246842,1885.4106859565932,16577.478880926767,1771.5785775341922,1363.3282154106334,206.80602577432225,2055.2942038518872,1891.0648911860264,16574.52312560549,1774.3604100233188,1363.4529445735739,233.65633356893778,2156.0644866239954,1927.104807396083,16507.53737854316,1783.875025412432,1381.9551232480057,220.82090509406777,2220.1368903502475,1813.188565320597,16754.73221117277,1753.7578086989292,1379.3657731204441,238.9730341205876,2036.4306815763211,1776.077870595913,16629.173666884257,1750.694064779798,1371.6682084318172,230.313420025969,1959.9843638237182,1720.945432751476,16582.034900877396,1764.4978278182996,1372.0953034245301,229.04005059498527
2060.0,1788.0,16644.0,1768.0,1363.0,239.0,2008.7346136716776,1750.6966266076488,16730.42767800569,1785.7337772948802,1378.7444204862597,230.1319324437526,1963.6850041884984,1839.4908710569812,16652.48564938107,1775.5789817087054,1364.5558160686805,231.21871690197082,2015.799819469856,1743.350776170884,16723.96829234134,1770.276608806309,1375.1354936847931,260.3652566619288,2112.034687539889,1899.9332399945754,16763.133378306862,1752.6822857878938,1364.8970024139176,225.38029107322973,1972.7830898993886,1683.5886952938474,16784.44281258733,1782.4369231625137,1360.119857091093,239.30077788845279,2064.925867329068,1916.656137371756,16762.601211747955,1759.0233556789287,1379.0096760544182,250.32497156072873,2009.6415617443822,1787.1941614929794,16672.63655149448,1799.8903540204792,1357.9849061361097,229.04537756098821,2145.111480985876,1712.1412899507318,16590.203045076483,1790.984747715343,1370.8832762404968,239.73270231052652,1876.2801293075574,1906.4275989933872,16566.12308711473,1781.9841389821968,1359.1338110535023,236.96320342913603,2109.208987870302,1746.6514605889354,16707.893552106205,1751.77028685497,1369.071320737218,234.32051408122967,2089.2474864115643,1877.756234682098,16513.870021857656,1753.124149121682,1353.9170576684764,257.12440868913
2108.0,1808.0,16700.0,1775.0,1359.0,302.0,2076.081704774017,1731.5862025632894,16665.6201272409,1787.201783941549,1354.6210888659052,310.76665474643636,2309.1188641477606,1853.6840489550452,16721.585027745747,1771.7702433099441,1355.6684647841494,313.5894901933923,2163.2640448561324,1898.2623783570605,16677.505817193553,1776.315733699488,1373.983564817618,306.2011605361085,2196.832859344161,1928.1626949671818,16620.245501528112,1759.376414296209,1355.1394614099377,310.7189410908581,2051.1082542563263,1745.3687104949836,16889.59281481708,1777.0562282225926,1358.6356941068989,312.3357138028319,2060.8336698754047,1832.2474061078092,16600.08869925763,1769.9919494043463,1368.2991147692235,320.0129747639267,2212.8107887967317,1684.140384521808,16649.58589382457,1782.306133387866,1352.040637814136,290.7251476442734,1983.3912615272825,1867.1100804942548,16670.80810575196,1767.9813930219323,1337.878282359444,297.1784800031404,2127.017461876823,1818.738711616426,16621.206136333356,1780.1089332708018,1365.8208209531015,290.10833044705134,1892.6631682032248,1626.5818050223013,16801.764658386237,1763.2552682380483,1376.5620188288844,292.95856526480134,2110.0118848560023,1654.2319088201857,16699.058873684844,1775.5289210045087,1357.8456930047666,309.5631083588288
2088.0,1792.0,16604.0,1796.0,1345.0,245.0,2094.511966319289,1823.3573674947577,16953.62509495949,1807.7006865001779,1338.913232423683,237.2377612103476,2145.1603135815444,1801.6742118195527,16558.617947659506,1786.0317064258766,1359.400958808624,239.00528908338097,2075.4519836145532,1752.4851332363157,16633.077388523463,1785.399911246794,1355.0621313178492,241.77523910993045,2147.113379790621,1992.1551735444186,16469.31244159834,1787.264612172817,1332.6172020502534,249.30956604966985,2010.231641314132,1793.05532348493,16460.656622143513,1799.7016637452252,1343.4522814099298,255.34085818564157,2140.803656961869,1721.1271981736886,16546.894306096117,1794.2286320135868,1344.2560480060479,229.68612721005678,2005.681939664748,1712.4916554407441,16428.87086034026,1786.0794504783537,1349.4583829219262,251.3789784462545,1952.6479932998784,1834.853986068364,16582.20632224764,1801.4509725710543,1358.7536073025406,250.0638000281741,1981.5121504515448,1929.6743748535941,16698.321803265124,1790.7214786070358,1353.3368412617629,246.06508707577584,2250.4956708852583,1784.0164454815542,16561.782500235484,1793.6198786087464,1349.709401467239,242.89626262005785,2252.1403564037387,1763.0136717861128,16543.49422350838,1799.3273601088479,1346.4495035390228,245.62294210828674
2040.0,1816.0,16736.0,1799.0,1384.0,252.0,2033.3286843713238,1945.8774515083176,16646.890450887626,1819.2435147247772,1384.1233548551995,262.26108776538047,2341.5964793212747,1783.9097803620646,16635.389853586876,1797.9304177336703,1389.899518453793,251.39526140750624,2011.5798922636463,1813.8976822775387,16742.130886596846,1793.4702175256502,1389.8372157517322,240.77647445262335,2138.5476046615145,1791.639849589597,16634.551222546623,1787.8782844376515,1385.8046988344759,251.65613371085706,2079.226311046255,1883.47025835942,16794.7158120343,1774.2761457585673,1395.1610099735838,247.31021337630204,2143.9074521026077,1771.7347592739236,16807.3578788863,1820.3150188768393,1389.243612195823,247.59892061527205,2133.860863445496,1712.6958892621944,16583.51752935338,1792.226857771631,1386.093269487527,266.18731799859734,1966.9260755993544,1926.3412052023932,16992.063666265436,1802.9825869277445,1384.1066662845583,253.99342139731095,2140.84117530325,1774.8433367444848,16788.936614710314,1812.5413590063017,1394.470836714463,247.10313381527786,1993.2535608782046,1788.1371554875109,16872.0044361036,1803.6317534144491,1385.778665261758,258.71506315104455,1935.5923025531558,1737.501665609572,16537.19384707568,1787.72115289685,1385.1394418063283,272.18777910730176
2084.0,1800.0,16644.0,1770.0,1361.0,278.0,2040.6293322486965,1736.6390516369183,16749.97984340594,1777.445805889803,1351.1406679139513,271.00513396730855,2150.500377717179,1810.1475331141028,16663.614357935166,1787.1320020113592,1346.941259891172,279.45760958797365,1918.4708361271228,1934.323787458921,16587.13886462385,1769.0923842585441,1345.7776127447792,284.73775758511687,1997.7933053913487,1666.306838427159,16688.687267612084,1766.5081924696206,1383.8287234459226,268.76355356121155,1912.4260340676694,1925.6002051052797,16905.03198372271,1781.5212498671915,1347.8122865315352,282.6822066771743,1917.7103430358877,1665.9566943432812,16548.16977445792,1769.0542061257609,1352.7266731520383,278.35816047109415,2235.0930892605693,1918.3218465597643,16612.000127197512,1781.2006764806229,1339.857435794923,284.3055832645417,2079.935720905784,1828.8463733870412,16584.193239611282,1761.5220839665064,1369.0034471670529,266.5425462323112,1974.1678783367347,1750.8609332889857,16821.002739029736,1777.870836768115,1363.3626319015095,284.78197069982264,2112.11358843674,1858.4858981170548,16706.715116836556,1764.660217245936,1356.1007384522266,273.20784190673965,2000.3475252566009,1798.2654420827298,16752.65101953334,1762.257515857411,1372.513583171144,287.879518876863
2064.0,1764.0,16712.0,1740.0,1369.0,248.0,2055.9664594619817,1867.2705822744517,16949.53198151998,1759.1392983110654,1361.6386074340837,253.6123900239032,2180.526161553489,1791.768813176713,16759.147344573532,1734.7882662592033,1360.5404040325336,244.8901287391282,2117.6842713049896,1666.2956333148438,16861.574192561962,1757.9908544690272,1359.313907062028,246.66315878344804,2149.2923336155645,1884.2166897067489,16815.850302617033,1728.7639532403289,1368.7231866568923,263.57896025888994,2137.5880149019376,1767.1194534324648,16863.308104772444,1743.387990429015,1369.4212577107091,249.62756904238074,2136.7899058955536,1688.1699453646006,16714.36462743906,1740.7760713965,1386.0894726747263,270.22305934107106,2135.3995553012855,1807.1978591455154,16795.03660091144,1736.6084732691875,1358.7629860066006,251.58385225265653,2020.9155379443491,1667.5348921819145,16639.70149092646,1743.2450547861604,1386.0274465942398,237.60412996528328,1854.3821501151256,1909.988448629602,16732.22014598531,1734.980886084309,1380.0451540791116,244.5491412469046,1868.1066711224582,1667.532709701256,16631.597543435822,1749.4610403868885,1381.1966429760766,249.9282096009986,2048.400994418412,1769.6990986400453,16681.72931998044,1740.3964287328877,1357.2234809623346,257.0056929430152
2044.0,1752.0,16708.0,1746.0,1378.0,259.0,2063.0849354962425,1553.3683249933358,16890.75446448801,1750.5456604111355,1362.309877442424,247.6465525876635,2186.8159550074333,1711.7209588004232,16794.070608723832,1745.6035602613542,1372.1258497921963,265.92937440154117,1777.8297651389248,1843.627891726574,16931.956889689678,1740.9960065508747,1375.2852206428317,257.97782721887404,2035.5020759114063,1849.5931189344392,16753.546138867518,1758.0036892945172,1377.782038652284,248.70478292195082,2087.851269123392,1830.296375247743,16635.186094717497,1742.1207887756748,1376.2655017849997,267.96817282678387,2153.540341081695,1803.4490980059527,16742.96257846022,1773.2097353999338,1379.7191470096861,254.94031914114308,2096.2821392945743,1597.6134647142248,16578.07570657713,1742.9386586758299,1387.8343018271257,247.49297873811167,2127.2788735887134,1723.6682934877829,16594.70612442554,1780.171251993739,1380.0538262474313,266.84989178383785,1896.5267218786555,1704.4623633744106,16676.82610946579,1732.627586732347,1365.8862236824734,276.306594459839,2056.9597454395766,1701.403486666385,16645.670774636103,1757.5430137997726,1375.2596794494837,257.4706237945396,2085.0779307001008,1850.2032722058434,16748.94157235137,1756.1175455397624,1390.7601068241127,257.34779634095133
2084.0,1808.0,16656.0,1770.0,1354.0,263.0,2145.223494897357,1881.3399346760852,16564.05973163976,1765.7971269777827,1359.7664572966473,278.85715647040854,2172.238575295175,1572.0000588358737,16578.62725218364,1774.5655976934079,1354.0314879654543,258.24390836923766,2037.92408045605,1726.919527776063,16536.219275770323,1775.8391807194764,1359.3747562632047,263.8042204838183,2035.603152949249,1781.9379521248047,16850.975094297857,1783.7313721965036,1344.6222681838078,271.80853394918336,1957.2794364199565,1583.4812938308448,16623.054306427235,1780.5429132049178,1357.8358449167686,271.306905168205,2010.966852936729,1897.2927075911894,16529.88607121307,1797.922332101677,1363.6140310726266,255.9194841375899,2260.985973143908,1932.5225530675189,16375.617966008618,1775.4361300075689,1363.7017899785392,267.36796189019884,2185.3286916014636,1850.0518250329633,16555.868644348102,1775.8974451897025,1341.1016074913377,254.41930149675733,1821.1095786614721,1737.1730774070124,16732.482457983177,1773.076362101935,1369.583655652655,254.35002467732247,2159.527119072628,1611.2997506572171,16651.977362791058,1773.602559085966,1366.352949365105,262.61170762367607,1942.1795260523734,1963.5062107536435,16804.6397824199,1776.182133552231,1355.6116738100677,267.93685720246435
2064.0,1752.0,16744.0,1749.0,1350.0,282.0,1802.1380710408307,1969.7308756317157,16661.10259628977,1746.0150195883941,1339.7012330532466,297.8191241523392,1880.9015072806683,1805.188329112932,16670.87076975151,1742.6113566363904,1361.2908119719573,289.170552706786,1872.5670915289968,1639.0073926800187,16795.79348026597,1764.6776008092636,1346.5286530729484,277.65931753332524,2158.3526141690536,1777.270435325414,16523.92638566584,1761.5534493418463,1359.508106944641,298.08922534349375,2182.411766094467,1825.0506620237709,16790.931610241518,1749.928456169784,1344.4444690316627,285.59982567798494,2187.5034631207495,1740.3405071693462,16756.93309163138,1749.7635987413146,1362.8548895456615,288.9971370396337,2024.401848851426,1937.0906314567787,16737.32835540145,1745.8447269735952,1345.7891757162176,288.0502818617362,2214.2472812749393,1721.2818924319163,16586.210179285044,1731.9409143506246,1340.4955004230278,297.7854938139491,2092.7663561266586,1846.2183593894106,16785.087553883044,1763.9316118828567,1348.8439960824946,305.9750729151715,1995.2006977128453,1602.782676733254,16703.90326826785,1760.3183712171285,1351.2210524552943,294.4270651463647,1928.1788715453004,1615.1017502251368,16590.56367477563,1740.8884979944228,1346.1175273923232,268.05607144855014
2048.0,1804.0,16656.0,1778.0,1372.0,287.0,1944.9018529106697,1876.278605122277,16761.64965650011,1781.0855419306558,1365.9021008835216,283.8966055604663,2069.052863087152,1723.9158384347602,16706.83180924636,1774.37539721831,1384.2859417606462,298.01143850465195,1926.9670487948717,1706.3012552020434,16736.09896431082,1775.0654680038372,1352.6368508179903,283.2016810934015,2108.7139740247117,1640.9337906163078,16831.459866426816,1773.3419098328422,1364.6767678343874,286.2912704342648,2066.8687566410254,1840.4887889997412,16644.5329861776,1779.4415994115075,1379.3357911012617,287.96696277213454,2102.180792556481,1885.2385090629018,16728.138855548972,1783.2880664147094,1355.9940116924224,280.05147375562615,2116.1895574511773,1729.4652602189904,16718.119942017092,1803.974504986598,1365.639757620927,299.6290791807032,1924.0763358962238,1560.8205136895785,16607.294215707592,1772.3347373992096,1377.805873934601,272.2563664227628,2008.574837553242,1756.7471074708396,16581.714122646685,1790.5928072155698,1362.0877130842434,295.8793971160967,2126.0616153135784,1831.4472603032339,16718.056902234137,1757.3494517562685,1370.7409496486316,288.8360754971486,2103.1913331739775,1862.8003263385153,16760.023165859562,1772.23850993613,1369.1355806814936,276.28608436121374
2104.0,1820.0,16760.0,1758.0,1355.0,275.0,2238.0069028348776,1750.4173976673933,16885.096382991786,1749.641793178922,1355.373024467925,274.8834060972656,2062.453518251602,1890.1019635001403,16629.456056615294,1758.0352082012707,1359.1052515079004,261.12544578141234,1930.0338886454072,1862.5217736979887,16926.255827471974,1754.5185533211559,1355.9382820246883,266.72955319315855,1981.799474163959,1788.2549538295677,16609.60452054194,1765.6470234871524,1355.5799434690257,284.97671753556557,2221.505682964022,1782.101075206701,16716.970037592087,1751.0703763042095,1352.1739739418829,283.1746901178063,2035.1321113282577,1890.0839338861442,16709.547059888195,1764.9190081759903,1334.9086867075594,275.4744061762923,2053.357861589133,1702.0373230148189,16707.166317528652,1751.455845962695,1353.7258902110893,278.151179271764,2154.1347533288576,1935.25302495849,16756.46854891053,1748.0455294832361,1358.8854735629707,273.34245285877194,2065.0297387581872,1746.7043328238228,16805.147308656964,1759.139112982823,1332.3315320725428,276.4960234570367,2237.223932651015,1757.186753343514,16644.535742865533,1751.059873793833,1341.3086325060913,264.7204227775091,2104.7772079703363,1749.7151906544552,16705.306774209675,1754.5077143049512,1342.0560221095463,276.96000801648023
2040.0,1880.0,16648.0,1724.0,1355.0,256.0,2136.6525312291324,1739.2448797421016,16668.403810777352,1718.6709713571743,1360.4409366796392,250.33147365473226,2053.846683355898,1833.3095698222487,16841.415860567937,1724.0237685828781,1356.5512780058746,270.3236915588504,1873.0726773580946,1912.7438834682716,16523.643786492306,1744.3478671634896,1353.0026048131447,284.0623602398814,2177.9638841585165,2022.6641150485511,16667.400945205267,1723.2245028097072,1357.9452701398966,265.7075660274734,1937.9861488611532,1708.4131747338683,16791.21727247793,1714.217664873381,1370.6504648364123,259.81688786865703,1837.8877530364216,1858.4336690456576,16610.135492064255,1714.1355713280166,1356.5096650299593,255.3404836071262,1881.6443156406237,1899.7894790370228,16621.15264326928,1730.0810999354778,1347.9607536018154,273.0616426084864,2144.7782889533,1843.0838228190382,16589.541409081943,1731.5123645563397,1348.845068858996,259.2065026412242,2217.5492920095753,1929.0792149692961,16571.533214539573,1722.0907723316477,1355.820838642806,267.7527467418904,1874.4805658982793,1848.483523697997,16667.6018730864,1730.3691861606508,1371.872397520366,261.25679223312096,1936.9330427870354,1997.4828236919977,16588.07515766342,1716.142499729611,1360.1858027330295,240.79281863002942
2072.0,1780.0,16688.0,1721.0,1336.0,249.0,2166.576797572212,1855.5866783270271,16669.70449843801,1733.8313440978318,1343.4864732279873,236.43035243561036,2241.5447822973692,1722.349146028352,16677.4249490291,1708.4214081313698,1346.2062783543265,245.13526016251535,2153.1348354015227,1649.306223369086,16606.51632854722,1724.0056798015821,1327.4392245902595,252.50297320324205,2015.3374897243357,1644.6870541063815,16873.901713513835,1722.4517701269099,1341.0811456187748,252.4047958493828,1972.9413808874529,1772.7093442723688,16671.28476599301,1742.0443741487707,1333.2549874217975,256.7125909474472,2319.6072081627744,1625.376458633305,16529.68746094466,1705.3161068178695,1351.487389778741,249.93198580742825,1985.720251009662,1768.3666405718802,16636.529323619914,1740.426338512525,1326.6284359123983,268.2774440849624,2077.463357786211,1892.417908194302,16720.213086340107,1721.0519551495793,1339.059538557421,247.28487964897744,2300.1690213641327,1740.389051317096,16584.311490092863,1714.7518823231346,1322.8263100345716,278.52541190188884,2219.2862333622547,1667.0881131476071,16678.420001680075,1731.4067837918687,1334.319031851784,250.8670780914917,2066.9496249022627,1829.171853275112,16883.328937283648,1702.8571431620892,1324.350379354675,223.45729140297973
2024.0,1832.0,16640.0,1770.0,1345.0,266.0,2186.8559482607698,1647.250301751751,16604.8828703043,1758.0833248327363,1347.625473705514,277.89695476992847,1976.4058791458863,1768.2161654631375,16678.15469585296,1776.1878849117086,1358.8945909329143,264.25036847716126,2070.013197249163,1928.4151347618208,16565.805975741674,1781.283996586951,1341.9586413025402,265.1348436999907,2107.6924389625706,1911.3593267769027,16691.886708944978,1767.7264947949823,1357.0385016816756,255.03866443095123,2013.2097002032228,1766.6777212097427,16909.322948197452,1770.986976636774,1337.4631420138796,271.793642470623,1890.716290495923,1834.671240209046,16626.907380596367,1779.047378462643,1336.8666688575488,272.3519016569331,1937.0776097938592,1598.9966021870973,16793.10130269755,1758.9768421151919,1356.9703523812568,252.49982034204893,1950.0183201001828,1849.1971600041018,16784.16398205193,1775.655354025831,1337.53982413736,276.34776674839924,1926.7954005746274,1757.6470685815111,16678.109564159113,1774.9053572208202,1341.6249040121809,269.85169175184626,2207.093425341558,1770.181329440782,16673.809284055784,1789.1794536774444,1351.1880924079487,265.0098716203618,2161.1062673906754,1916.5618066191614,16668.75856230246,1759.4421253433832,1362.3261174180373,270.69338717965644
2064.0,1844.0,16652.0,1745.0,1351.0,261.0,2003.6648922761335,1844.4618384443975,16605.008343407386,1728.5999750922742,1345.442777854431,238.40938511560148,2075.136947455514,1949.119216598757,16742.868111956366,1739.9996408163042,1325.1275225493541,248.48675305010525,2068.664731135055,1818.1019414919085,16618.168644731195,1744.105533975892,1344.5235904643062,253.94477515599013,2132.4207406925243,1788.4560984586344,16613.240171515085,1730.6621211020831,1340.3135078949153,259.73237127889394,1970.8272865682547,1746.7595800610877,16698.978012277967,1740.6104317445765,1371.508063875521,245.4518732962239,2013.9270255263236,1854.0008841312942,16630.211793184197,1746.1454343535252,1359.5786026014946,284.7833563993505,2061.265733633961,1574.1573944627519,16827.722591683818,1729.576007982955,1350.880149640844,268.3951032177106,2071.6823564299234,1666.682910822214,16538.295932983936,1740.4451843878014,1343.381097466648,250.64542119668033,1971.8651100257084,1829.8837564406242,16569.527363244928,1753.0931377056347,1339.506986152129,262.19211259872804,2030.048237933331,1808.6941714542954,16677.45112667442,1747.3237564828025,1364.407676575046,250.96850574597624,1933.8331678143559,1874.2704031935414,16847.945840654458,1752.3947105115985,1354.6919865612035,262.76006313407174
2056.0,1824.0,16636.0,1775.0,1316.0,295.0,2024.4949009144134,1708.1868608725065,16555.657498696703,1758.0309052583932,1305.052283058042,308.51108052108106,2126.03804789985,1692.4778018504855,16656.614114583877,1784.4218596062333,1307.97510283715,296.7332963856468,2059.0588953295046,1879.0406941991548,16651.103735565575,1763.700748122466,1318.6231678093948,304.2639234253586,2124.7731295969224,1884.2301242811664,16584.333342278194,1776.4135364642927,1320.312346113467,308.39903418985455,2019.660213475702,1780.4218142524012,16666.27342242472,1785.9163289178482,1317.2177810949152,287.2148794578101,2093.49232270563,1939.528934193302,16603.532518313452,1766.1775819284612,1318.021846913854,297.594151745292,2019.1056076566263,1936.4891313015119,16474.61707891833,1761.0738617320735,1300.746637233507,286.6715381524809,1873.4176433936245,1868.1820082088673,16614.72070263803,1773.1692813811976,1307.1295326919253,291.7517418464701,2135.572670248922,1822.8832219111084,16687.46839397563,1766.4954800610108,1323.2256547337383,307.0848374413279,2018.439173439807,1783.8577537006602,16681.026415621116,1780.465278792999,1305.9980235916983,284.91639212098744,2026.086896628202,1814.3061997588652,16625.39357200648,1759.631169930869,1310.262047470893,299.90212258634585
2060.0,1760.0,16596.0,1784.0,1355.0,260.0,2011.407563334093,1815.132661629007,16551.751103059552,1800.2612914044878,1341.6022564804698,256.0436703488505,1975.3959912339585,1709.1149688079186,16550.407529697004,1779.6972446274794,1357.317516985599,258.7504369130371,2141.78420908073,1863.2352291347786,16646.96938954932,1793.8236858555056,1345.3947236665576,251.3809308162792,2210.095259033627,1571.3196538595444,16539.986935965564,1776.6299931804115,1360.678519524735,259.8035640620586,2165.6303986769503,1868.0938735672307,16486.498580947744,1767.958674529047,1360.2863851695924,263.6572648294652,2096.9988371322665,1636.8665355662388,16513.243315702635,1767.6739722885422,1341.246798939654,252.63089192755402,1857.8266607280937,1726.7996390779317,16576.078131248087,1775.499727119951,1344.5366056470664,266.98539126997713,1993.8975600705853,1873.0096904626544,16473.734542324048,1793.3801970257666,1352.6442645839113,261.0911797586935,2359.9615262097277,1669.981705570215,16638.60602972853,1774.6305136229007,1347.3131292245432,253.39451625380883,2010.3299547851047,1790.7057735630467,16524.658164995068,1772.404509959082,1372.245096630366,264.30677876815014,2070.5265943193717,2033.9909321957398,16572.648050456817,1802.3538355577334,1360.298240248605,259.0469344705276
2064.0,1756.0,16708.0,1785.0,1341.0,253.0,1970.6634498048572,1794.5592764495125,16772.64608809355,1785.2579318364922,1333.5084216571038,248.6478742388065,2093.590805302472,1888.8996245805274,16607.562688092403,1788.544450652101,1350.0778076838312,260.46634855101496,2110.5306701232576,1522.5584456904717,16794.69269991627,1783.135233451057,1355.4552442293916,246.69209819677909,1982.3813091815684,1654.2135708012497,16648.062719006037,1766.7704902950518,1354.740986189111,243.1301256244507,2066.038662775131,1700.4705399831814,16575.835258835494,1774.9657621018926,1347.0220596128484,239.54600339808667,2194.25332864297,1757.0746541739252,16639.58927413934,1768.6534210902298,1323.1684700561852,249.95451834611117,1994.831626814767,1761.8730305757294,16722.435021714555,1783.1192130355084,1351.0913429769496,251.06253380661687,2072.639586654518,1739.0930588449187,16923.147101884282,1775.9609162706915,1345.0108298339162,257.75231635459613,2135.48659352272,1681.6433746803268,16760.061497513238,1780.8612350606768,1350.5918042951953,254.7235800891494,2137.903598386624,1864.6474063712164,16599.78733124753,1794.4742991736362,1333.9444236711563,260.87074775489697,2054.0836890554488,1814.0780172765228,16687.472073701174,1784.9128380803995,1347.5008828014395,251.90224880371028
2088.0,1792.0,16656.0,1760.0,1353.0,235.0,1898.2814792726638,1834.6191866131253,16588.740176678544,1751.5050975957222,1367.2993030174403,243.54790156229922,1965.4239576518535,1670.742958663164,16556.713533163558,1750.6856201699,1349.7402729375501,235.2972453768197,2074.3539211119282,1873.508668401388,16517.045986391007,1756.7545718911088,1344.0147137281415,235.00152232637785,1896.7551985222424,1733.9258117169425,16654.72619140575,1767.8175747304294,1349.0900018449545,248.1603390713963,2103.4761970259015,1924.701492581854,16854.273116636614,1761.9980976337863,1348.179753492902,239.10652716814747,2163.9319128785096,1796.8359698257416,16689.428140047447,1755.106939014941,1364.8401660008772,243.27065689091287,2264.2942319409553,1793.2817707231975,16569.573852159963,1778.33032932918,1361.3092739283898,238.21083956917536,2035.2460769982852,1810.382318872412,16610.90015944614,1765.6011553249855,1363.537216383832,220.0828339989133,1934.7586072664913,1844.7840466936539,16599.64416906052,1772.7457872992902,1369.315991648691,239.01139858343677,2349.30549745246,1769.6913383381814,16601.62280303911,1769.9464367070493,1340.5307827928407,232.39833052841863,2183.4124726543137,1896.9893605876148,16674.33638285407,1750.2992128181745,1343.8138701827713,258.6686733737846
2112.0,1796.0,16672.0,1753.0,1352.0,279.0,2252.4277258019906,1884.9512570650863,16551.122817163778,1752.1070279174567,1369.3757212887408,269.1978461776115,2334.6925238988224,1830.542359018104,16578.97532936263,1762.7382883842693,1349.3548894838752,286.5382231866078,2207.46515676857,1729.3667932700957,16691.430989462708,1746.0771505866362,1359.8436162924932,265.8319122007851,2306.185953546022,1807.6020600731556,16792.33233307897,1754.0765332779788,1346.6801746877056,283.5812702756305,2128.102285958228,1714.3849805027965,16626.632277073222,1740.7689952363212,1349.1097572767108,304.2619057621269,2080.094740154917,1722.4889433453288,16614.807070815365,1767.9291593955961,1362.7462869702556,297.1106417963137,2190.292653918857,1940.2387712380628,16669.767809546636,1749.5714839735515,1354.297635469728,264.6898003109836,2237.665607101295,1862.4251314939693,16763.68510075519,1744.9184531333265,1354.5026799353507,268.4063454364844,2302.2802808754736,1702.7567367934157,16696.407260885277,1761.8704432965142,1369.7542328220768,293.85090767365875,2136.9136379267184,1821.357321665841,16833.023246205626,1767.46729800511,1337.7769967397253,284.3372413720859,2046.5178155469348,1877.5286945467387,16703.850501879755,1744.039785788917,1335.0729249271549,288.6964354173414
