IMU1_AccX,IMU1_AccY,IMU1_AccZ,IMU1_GyroX,IMU1_GyroY,IMU1_GyroZ,IMU2_AccX,IMU2_AccY,IMU2_AccZ,IMU2_GyroX,IMU2_GyroY,IMU2_GyroZ,IMU3_AccX,IMU3_AccY,IMU3_AccZ,IMU3_GyroX,IMU3_GyroY,IMU3_GyroZ,IMU4_AccX,IMU4_AccY,IMU4_AccZ,IMU4_GyroX,IMU4_GyroY,IMU4_GyroZ,IMU5_AccX,IMU5_AccY,IMU5_AccZ,IMU5_GyroX,IMU5_GyroY,IMU5_GyroZ,IMU6_AccX,IMU6_AccY,IMU6_AccZ,IMU6_GyroX,IMU6_GyroY,IMU6_GyroZ,IMU7_AccX,IMU7_AccY,IMU7_AccZ,IMU7_GyroX,IMU7_GyroY,IMU7_GyroZ,IMU8_AccX,IMU8_AccY,IMU8_AccZ,IMU8_GyroX,IMU8_GyroY,IMU8_GyroZ,IMU9_AccX,IMU9_AccY,IMU9_AccZ,IMU9_GyroX,IMU9_GyroY,IMU9_GyroZ,IMU10_AccX,IMU10_AccY,IMU10_AccZ,IMU10_GyroX,IMU10_GyroY,IMU10_GyroZ,IMU11_AccX,IMU11_AccY,IMU11_AccZ,IMU11_GyroX,IMU11_GyroY,IMU11_GyroZ,IMU12_AccX,IMU12_AccY,IMU12_AccZ,IMU12_GyroX,IMU12_GyroY,IMU12_GyroZ
1888.0,2460.0,16728.0,1868.0,1477.0,293.0,1898.2496278967,2286.7734684880443,16851.09016277175,1869.01663296641,1484.1180563090356,280.796705181623,1951.3043169478124,2446.817407044795,16747.09771057403,1859.4303994699624,1464.7774255515926,301.0345050250731,1910.1046683810928,2578.8799439422824,16829.915214376237,1886.134591113266,1471.5607933325402,295.5080514231859,1958.0177839062715,2482.4357153882834,17062.631552058992,1868.909272299603,1489.178485207877,288.1948217774723,1771.0335052714477,2485.167653864805,16555.568776548258,1862.5304882694606,1472.0218369623226,290.01638720752874,1972.946491994033,2399.824110093514,16710.8736914552,1877.7126464101677,1463.733007349323,306.3373399456502,1873.3059596102971,2533.3839355193095,16633.17273899619,1873.0639210638624,1475.549011402925,297.2219239927008,1928.5588045718162,2471.0735002888387,16743.506954474648,1879.0405258290596,1476.0533818712377,297.32953459700786,1803.3477344484588,2398.2545746650535,16822.872908191548,1851.025099463847,1479.6442918526027,298.0178855278931,1971.5843729564394,2551.798830090797,16756.397302476988,1863.3999102756572,1488.9129015864291,276.5235365137688,1835.7792503003545,2444.1949380603432,16743.61774751729,1860.3762439818954,1478.0394607704795,294.5189474992194
2004.0,2384.0,16444.0,1492.0,1177.0,299.0,2040.2842361675705,2414.9290253459612,16445.021668702266,1490.4827137279658,1184.1997641975581,297.478518482432,1954.9387776051985,2259.447152995415,16386.087531595505,1481.4757291701103,1176.6810389607615,295.1160929839126,1943.5756006098022,2347.849658727949,16448.732216491462,1487.2617063428304,1170.4676796547515,300.1510438512964,2035.4886007773287,2428.919390213267,16330.628697452605,1494.172599235946,1173.727004329418,297.2508686188895,2005.2462970123092,2394.454744890609,16426.2805852658,1490.6189225907083,1185.9570405549218,299.4541682502045,1987.0674605915644,2422.7107657247293,16373.466088987088,1473.0798928943902,1190.9159652383817,315.758557420378,1827.0750800916294,2227.1138040913156,16449.763790729423,1480.8633609010965,1157.075656461829,300.1502444593405,1908.7183234049833,2417.226862628208,16546.487156300696,1519.7191348433305,1181.724978726161,304.2621501560737,2025.054505264358,2366.1030241585054,16232.780800751101,1481.9021258128244,1180.3372685702595,302.2332823184059,2031.2556226065503,2412.7125173903405,16488.51422774942,1503.4356968455988,1176.3143992501796,290.65243750822845,1968.0756361978329,2442.371826376735,16544.23780852669,1489.1655329607247,1160.3227806981783,287.7420713418109
1820.0,2392.0,16716.0,1734.0,1393.0,278.0,1739.4431453459683,2451.1856693840004,16793.87381704806,1740.279445214502,1386.472405940853,267.5211898101132,1869.8983604877076,2366.949672308956,16698.110053045944,1730.8608734906911,1394.4289043715253,284.36918715905665,1830.7818452047466,2355.178238184505,16699.920847000063,1759.7454709477583,1411.7955175950344,283.49679460778714,1838.7759527748824,2541.4592006823054,16843.98661847444,1738.1054456256286,1396.1219915410077,304.6048317297284,1955.8722774728017,2435.210451278929,16591.74719888419,1724.6254285506716,1389.545811801385,281.26290921815314,1651.9356441773368,2449.1410354563423,16613.955209695407,1739.8550358923028,1409.8592188520438,274.08525542336383,1706.6636687940543,2311.8619892693323,16365.745737994202,1733.7305864495006,1385.7512110582259,271.3136817271247,1674.6088415371892,2081.2818589676763,16676.19270607442,1733.3668946550163,1395.65752279395,279.13050817929644,1820.1754473623225,2331.913399447743,16715.995688269457,1732.4882217675067,1388.1187910650933,275.4373311169717,1991.6345799114426,2380.164000331457,16655.492407226237,1729.3522510272153,1397.3566393925448,265.2297453422463,1901.8117302394535,2555.904464905414,16715.735015039027,1732.5283763510208,1388.765421650198,272.4257482266153
1956.0,2396.0,16588.0,1777.0,1392.0,267.0,1963.9377791309785,2531.8308869398707,16614.51080902134,1769.0973706747725,1399.5991952262725,285.8182791443153,1970.1827330742542,2539.1795091203126,16522.86829028914,1778.8047478482736,1384.3351380220786,278.0506525610747,2032.4603398097397,2358.0265204751377,16567.188867131565,1770.079465420291,1399.8280982892184,253.2005172521305,1943.2441185353164,2506.0813092234657,16713.267553147256,1772.3223500890613,1405.1644358512315,262.0924884519038,2004.5764533153126,2355.523844191973,16685.360042795375,1777.7899806689154,1394.477182892269,271.6459429188945,1983.5720040443912,2489.2178812976645,16563.179261513877,1774.6794005002464,1388.0961272585353,284.70206282362614,1857.1164383810544,2322.983676804427,16612.87818383417,1772.458982509832,1397.9115764433054,258.1842008336729,1899.7766618790906,2411.4124740141583,16653.27682021889,1764.3766893662046,1373.1061004592689,264.1995112151467,1941.0652057273069,2347.7737160076153,16464.794802348395,1776.7227235364458,1392.2244757856258,255.04443008960544,1895.2140469077344,2416.51310453343,16655.281065125437,1765.868675741376,1391.6928482224,257.4432795564394,1922.3879168325436,2415.2338198287107,16712.375594897592,1776.5904505742983,1390.862449675461,260.3237039500931
2088.0,2324.0,16728.0,1774.0,1365.0,256.0,1940.0525983770556,2328.9427858076583,16661.31568826873,1776.8136743065413,1367.171523436369,260.3412805737199,2166.803381935861,2414.445375542947,16634.10387357843,1769.9346564723292,1369.487961318558,241.07706321404046,2036.8570938847638,2346.32835459525,16655.36623809997,1766.4708782308523,1346.2493516872125,239.5684507713772,2080.3127022235444,2235.6141971120455,16709.065250352003,1764.9013303639188,1368.0856677535182,253.10698643888304,2083.9806725724593,2401.9738856888193,16721.034850876866,1778.60078901771,1367.898986721472,247.2388275195986,2117.0631777752583,2302.185753320986,16753.0203245757,1767.8931784369486,1377.1342408078299,267.63540953392294,2098.809100224376,2311.285160330001,16584.507303930506,1786.1447496571118,1346.1992039188074,270.02475674728737,2054.332534500297,2299.9973707183744,16959.736784308083,1765.5405209495095,1378.3114218815683,259.1430713112489,2065.7924921479525,2240.665042396479,16832.34700139125,1783.8243128365243,1363.4482575885065,246.92046964062928,2054.7027661323696,2438.434050946559,16709.743072679088,1784.9410511533533,1357.4383200886762,241.7098120392548,2147.1823453992993,2529.4831427129147,16640.435196130955,1780.0445725993704,1369.4541540843768,245.12675321994155
1944.0,2392.0,16680.0,1743.0,1368.0,290.0,1890.4529947993888,2427.9294186788657,16483.15417697601,1733.1315623696905,1373.9733392925225,287.4999856517333,1782.768226542958,2387.2704802111125,16481.589978884964,1736.3009278616516,1363.0019880517566,296.9721787444757,1829.3475794560636,2289.2339937645747,16712.384173968167,1732.9711817065674,1369.189823559717,280.32091883301166,1899.6096013887814,2346.7065882151983,16501.17979804539,1742.9724860014892,1348.9882213536662,289.6566182231407,1962.4016469916298,2288.608945425649,16718.03931233062,1740.8923098708465,1373.39358120117,291.7294371250612,1857.2560153836755,2377.9097456103455,16681.959860619645,1739.738510353639,1361.3991837624653,290.75155019771796,1978.2447034716836,2407.3749810063523,16692.625858666823,1750.044418373025,1368.2865493384013,287.4410321404159,1989.972983791162,2372.966630406247,16729.178663195693,1728.7412000978782,1371.451521265572,296.6515526739506,1988.273700066315,2245.1731334199767,16541.837314692188,1750.9319165971924,1382.1990529623126,289.4702648263441,1771.090364601262,2266.4936250866353,16760.28570046798,1745.2779412295026,1373.1969028639855,296.31028250807105,2007.5266993365424,2456.7099376857896,16642.313425100045,1735.0175364587421,1371.3949461646541,278.7687339529963
1928.0,2408.0,16720.0,1790.0,1365.0,304.0,1810.5944835587925,2580.6134916238143,16905.231137056307,1793.7578934796145,1362.2799608441237,319.30416598271273,1938.6263427741374,2504.117190379248,16764.692317447938,1785.8011715431244,1374.4777478868518,296.9988744695972,1683.5108253520084,2409.120377152421,16663.88451989685,1793.1788158170407,1353.7572457135586,307.84566040767197,2082.177292919337,2520.9008248306473,16665.368480444507,1797.2026125300986,1362.6502551844524,300.9938229886648,2045.4214070561643,2383.7588921117404,16716.669556769597,1766.5439982536868,1374.6747949310873,321.894431101647,2059.6420598035184,2513.2743916322797,16674.43393037964,1786.1357674464248,1357.762303078979,304.86308113026433,1832.1946978034416,2494.116799959772,16939.404206078394,1775.1985795614567,1356.1638932166798,307.2253412839995,1819.1285916622703,2248.1570670558876,16584.413948638445,1788.3378312505756,1364.038944011052,307.465872337297,1984.6944092127665,2519.158087394978,16619.383042071084,1781.7509801985257,1355.8835162027783,295.9955922242391,1954.0070070832317,2417.0670369534896,16751.857756803278,1796.4296864253745,1362.4699445180338,292.395120125186,2013.2964760140574,2446.3610784042753,16536.437452057336,1776.3701682729845,1374.0778753820352,310.1720044771162
1916.0,2416.0,16684.0,1740.0,1363.0,282.0,1905.3472710320043,2485.1550688942016,16674.68283681724,1741.7336821885017,1361.0350343759192,299.73706786097125,1789.3920519497315,2529.946700416764,16747.534355054402,1725.032223330547,1360.6040130773579,258.06548359059644,2023.713516700959,2397.166643300885,16577.88041725948,1743.0184328904531,1377.089791488066,296.3121119714042,1983.9099721432317,2288.7777528201245,16850.424028568228,1750.6221684680997,1355.7509731343234,294.091660429639,1967.8751467650204,2446.7452572761013,16824.35018542155,1727.811093889087,1353.4958865781316,278.1884112104804,1892.4705939670323,2457.618397622993,16521.558077515307,1732.75983415501,1363.2646098319296,280.4946228604093,2019.3556298254653,2162.7165705936886,16634.42745797339,1731.864030330711,1372.8853183899569,285.15648761019656,1952.7008597748397,2547.1279403328626,16630.921784629776,1754.997324763577,1367.6789052319566,271.6770329295766,1969.0165085019971,2472.7307181439974,16680.94249435986,1739.3646870254377,1373.0414541326636,285.9137121872392,1809.5723706770507,2477.0955389642822,16728.205004120704,1738.6231176307003,1367.738649201931,292.1813288840499,1897.6141321747689,2437.170012932788,16711.446625829307,1738.6682159458944,1364.1324154524495,272.02923615115463
1840.0,2424.0,16532.0,1769.0,1368.0,285.0,1704.801812393563,2247.071324209131,16644.890111063392,1765.972970767773,1380.7487950220407,283.41059380287527,1876.4369282638932,2256.3391667082906,16424.48562580015,1752.283140036265,1358.502640051134,280.0547354199755,1933.2489896744942,2521.128356635826,16643.128448341522,1762.633079094016,1379.0593490273575,291.5539080041203,1839.6565997271603,2585.9341918143764,16453.489817442678,1767.212905368896,1369.168791715303,283.95983346754394,1918.0358844985801,2497.113061283418,16437.54017968999,1773.8247150050086,1364.5587367058185,284.50691101663705,1968.8158979636007,2421.9168715357555,16602.821274198526,1782.4965832418707,1364.40746111038,300.00210501204594,1929.2979475202428,2542.558586271247,16645.621085595438,1775.406680533366,1364.0580427470834,274.55065581631595,1795.7054365286656,2535.5828273733246,16411.07991934945,1762.8554621335877,1375.277241692899,282.0047729235185,1853.2045288595084,2396.939615009455,16383.212890520748,1781.7434701429745,1354.9450164877253,286.3972374186161,1816.1342459801888,2581.391868681281,16550.584220641278,1761.8905758077665,1357.5562502160049,296.3345645673753,1774.7259733559788,2475.2693016933363,16590.03400778303,1749.0327031635647,1364.2040017035897,296.0288933791885
1952.0,2404.0,16752.0,1757.0,1364.0,272.0,1773.1395645329894,2419.699949685476,16625.073602949415,1767.9219218437004,1352.9761241423607,261.93351017646273,1932.5424793118932,2333.055008992419,16608.132035360497,1772.4780428983818,1360.1768308700102,269.4868830550265,1836.3390012403852,2297.460492391875,16866.585866634105,1764.735440767719,1354.803654788787,259.52796543340605,1712.4571744146986,2479.7041430079,16760.124619878057,1746.7044801772838,1348.7874236263171,273.8976034980043,2045.505804625604,2392.953121209511,16753.11071801113,1762.5057562324596,1344.713377997632,275.7309685061767,2052.47335371362,2344.279927490664,16709.12230954947,1758.703898956476,1367.7185291872418,290.0732218844619,2001.1177462619953,2361.6092202591526,16779.020859053122,1773.1252132180039,1363.5903228005664,271.7363990859363,1914.5601329353608,2388.8939960179023,16753.320741540007,1757.3497271051071,1352.2561385069948,267.3891459492569,1934.1450730240738,2316.8673313211148,16729.00437774029,1738.927847687616,1356.844109223836,285.26272240304075,2063.248324433748,2324.842991182493,16853.560566276883,1773.4693489357605,1369.5715947606027,285.7449275655111,1877.064007853852,2537.8285719240675,16830.270349205304,1741.1890251766827,1355.4905723149827,275.1410067630192
1988.0,2388.0,16568.0,1782.0,1343.0,288.0,2063.05420268945,2346.3605056859333,16648.976527886807,1781.4858386877142,1338.9662599920202,278.0311848648463,2088.7671293092985,2322.6106655687654,16544.379004111484,1772.3887610054312,1347.9468904365654,293.7439475452372,1922.5352074743519,2452.4060432154106,16731.03693601762,1769.697469329587,1337.9138177651614,274.92555856708464,2159.496074643177,2335.285352887007,16769.920230516607,1786.186275975248,1332.1948733103177,297.1348117569984,1849.9853559707203,2311.058209036256,16480.042648997445,1793.8435972792665,1333.8900252521682,282.6876978446079,1934.7179307712456,2349.8724398705726,16539.716118428143,1781.4036206278122,1337.6146473922688,303.88349296299765,1961.847004289171,2376.4284783539038,16467.639109980708,1773.1485812580966,1342.9304152572001,280.9382681234584,2034.3011242235566,2248.157797520751,16733.68631182032,1772.1008980377921,1346.3281908472259,290.04002120196026,1743.1516821693508,2481.380388832815,16730.430341749405,1790.532762354682,1347.2270263198668,282.92920430940893,1822.2895775879315,2392.0072747300565,16471.60740446069,1778.4829146860495,1349.1952830129605,275.1268453553667,1989.2153857214503,2452.5325597555006,16404.06730714662,1783.6627952285346,1337.6897152695342,289.66664355612994
1956.0,2372.0,16664.0,1756.0,1393.0,284.0,1895.485418362477,2392.756632152476,16736.935202977824,1749.1775742715702,1393.244052176987,285.99806764635497,2016.7660133525644,2431.370400652391,16463.191432349227,1739.3782326918083,1399.3760591023324,291.45129728057196,1936.790846196085,2132.0335162713063,16601.49890031405,1760.484868456497,1406.492454866304,293.2765183983735,1783.9402034335506,2553.149723664201,16713.997287803122,1751.0050517113848,1380.0514149675134,294.3436795860257,2141.6052129026793,2412.5691223909266,16481.69100090362,1769.737322234032,1385.234629782468,275.1986583021579,2034.8234268496853,2608.181923774052,16792.855703570556,1758.2359880272018,1387.5120123745526,281.833751171618,1909.8804747418085,2380.190896055577,16587.54683504664,1752.8080009904997,1420.818607208754,284.72403201152343,1944.7579826075573,2378.9580136826,16861.61180299607,1748.1719258666315,1385.1622027863452,298.0042652316459,1869.6684351187612,2219.14070118529,16734.855674623017,1738.684404562947,1385.4890131079808,269.84441214007177,2032.5197612909797,2545.383775594274,16593.756574920117,1749.4884963070585,1388.8137481247907,287.14054889334454,1917.9406532588412,2329.9380633143355,16735.271096666005,1734.654002025274,1393.1566030918793,287.15661993026106
1972.0,2356.0,16668.0,1728.0,1357.0,317.0,2000.6004522999838,2313.169815466093,16513.562244370976,1745.453867639996,1344.5719927824814,307.1315487351955,2107.0943614442476,2357.5673535848127,16573.75324519946,1740.6759541426256,1346.1818249167497,330.4344879759579,1898.2390200659054,2432.16896171606,16666.902644716585,1724.4215671205347,1357.4783098089617,314.81458661937006,1892.3262535446622,2487.0027782367474,16648.00240852324,1722.0074987150576,1365.1508180763,296.9412453679106,1687.3670084563093,2208.3630045218983,16560.999290225267,1719.7328711212083,1353.2865901587772,307.9078135870983,1939.9921793115725,2244.707244977818,16695.08668143206,1742.011061805343,1345.673579027037,320.4509014363025,2142.4245407114786,2395.7092916642805,16646.16687501013,1727.1428533087349,1359.2237438221111,317.85039981843374,1915.0627294328676,2242.4222880630996,16751.365402842388,1718.3168617250374,1389.1722673118177,321.51529748481335,1873.16292669749,2488.804670949061,16698.94384916875,1722.8295514787637,1371.1219949947106,305.7899529459466,2052.5777883305077,2380.0214899570083,16723.194018213828,1731.8645624197297,1364.8134985754707,309.4976269603076,2035.66254030901,2397.960300306602,16544.340231024646,1713.0619782572098,1379.2953154749218,324.9657851229685
1920.0,2376.0,16616.0,1723.0,1387.0,269.0,2105.851841200982,2371.7363049841147,16673.277438573114,1714.124624605577,1372.2337912164007,278.91569579117953,1983.328220011542,2287.6318335920573,16619.6299029822,1735.0469982740988,1390.4301425527156,257.42335730878347,1801.536104396616,2238.8750488861006,16621.661188764476,1708.4309357369416,1384.8820874812773,266.729068728245,1877.0513393711478,2374.9926402714636,16544.219957015877,1724.9837815050007,1393.0624412721531,256.9415332983374,2132.539744180863,2427.759305789709,16727.089709902655,1735.3295864177405,1389.217648880783,282.1132310041529,1920.9706286439935,2371.5210241634904,16648.357167116796,1709.8477525217265,1400.2228573693837,263.51253893794575,1900.8363850034352,2624.764097714254,16394.52096208456,1701.7880116598951,1392.1700779644043,279.41856759019396,2029.5399709920293,2238.6113391984372,16512.150485350652,1724.9652480100515,1356.7151519513914,259.6213399544138,2135.1662547822866,2533.1790407685835,16598.87461716469,1722.842412993265,1385.6315401248396,257.6658001748815,1954.0472349004986,2329.6577831849518,16555.396531294744,1722.3947109733401,1384.8607168060214,269.983948832896,1953.4438464733346,2388.4803490171766,16424.505729947956,1720.2326748076127,1380.1300829797033,265.25314156783884
1932.0,2300.0,16612.0,1791.0,1377.0,297.0,2012.4004154497725,2395.4612641289937,16495.035992210436,1798.0258404362928,1389.7937731500028,294.69777480431407,2025.6735885026887,2137.0734917859045,16473.922110279484,1779.3755422289003,1383.298439706396,296.8147167764194,1862.4575188571155,2373.238544312514,16889.06550427608,1781.5417667364886,1378.22346862451,281.90517014221706,1868.3583337094167,2329.9830681551684,16382.416329882819,1784.1908318899043,1380.5145961035732,303.2742884091126,2045.205735605804,2203.966602458299,16574.141413833335,1768.2418207376713,1381.657929393753,293.1180282941542,1817.967362995117,2170.22336274759,16690.04299111501,1796.441350204298,1372.679139151327,298.0826897474687,1854.7750328524687,2285.4709662556797,16696.337101290148,1802.134736780921,1375.1086578978034,291.4928633244735,1956.0281279624312,2389.144748459605,16457.662501599974,1793.9050736953463,1366.4547765903312,302.1231801794508,1913.6601464536857,2283.3885820824553,16408.20050957327,1798.3488636074355,1368.500402611357,297.0925503492872,2007.8500531004725,2207.0283795860305,16704.923119140825,1796.7163391169543,1364.409440293059,279.81891620297966,1899.5481806176224,2378.079026554083,16787.00613608089,1811.6024985076388,1394.5561144213445,285.9441926327834
1956.0,2280.0,16604.0,1768.0,1382.0,287.0,1924.1448715507906,2416.5166836447966,16701.563071551063,1760.0954611839234,1370.380080483723,279.10990688886903,1977.9419968835662,2260.711064981041,16669.423384350877,1777.207034426122,1372.1668508816836,271.30915432674647,1979.039540937405,2077.4791530063,16680.173814497703,1780.2582688704263,1398.5818690521103,287.94710692314237,2111.32821814916,2299.426422116707,16551.936680363113,1762.3892836328303,1376.8678538944691,288.38582011646895,2240.766089042441,2281.493453141495,16728.10728965919,1757.720092904629,1384.6778223746273,288.23518484945396,1922.7598551499723,2290.4924319919455,16552.344505994442,1780.194379410767,1362.6467265559822,295.61277307722037,2008.4309053960176,2280.7601044301896,16502.80479375694,1786.6402320528828,1389.7155288229324,298.4156924045855,2077.2926663997146,2269.5693709276425,16579.863900195436,1766.5478301193502,1391.8201606478174,291.83833546668114,1891.220453968162,2330.603962930419,16742.716554761108,1763.279945995282,1389.631019831925,281.60716340969844,1945.1267153637405,2368.422409034989,16510.403579949663,1761.8414089841897,1377.1870232471372,294.6805719430512,1855.8180596934055,2499.224751695059,16503.525545671568,1774.7850889607575,1363.505740070792,295.18080260178345
2000.0,2332.0,16576.0,1751.0,1361.0,265.0,1956.0654195242334,2204.1302290944204,16628.490333485817,1738.3862378492286,1361.3562400527976,279.06876451542973,2009.9231362314367,2165.6011756728926,16681.526826814177,1757.9358371915796,1348.8521358277965,278.50490482055477,2039.1116883505663,2412.8990100489677,16332.403952129926,1754.16403929731,1355.0005205787627,267.7856556152311,2066.190320651169,2422.3804673645514,16607.52449319428,1751.2245835873898,1352.1814183246756,252.44970038074095,1969.6382402719262,2303.9049682098102,16498.48187884689,1750.7448013156488,1374.8139169607348,264.3363396907501,2092.866706355381,2258.74934605636,16560.673220316712,1760.8585936376373,1365.4276999855635,255.76074152970432,2155.924357479437,2283.6604781537335,16583.167833144544,1761.1299994476835,1360.5308459880912,263.211795335809,2008.743278869694,2328.8868229810064,16610.56221716256,1744.2761665351636,1343.09608199233,258.9087025729438,2073.6354966599088,2232.0915898659246,16458.583356047162,1734.0144378832686,1347.3207982122824,289.47396097737266,1824.095184727007,2376.275128295824,16586.564937345604,1752.912839371909,1355.8814784737372,273.6031859794583,2003.8488940072425,2272.1040236904805,16560.53676515471,1771.5504612659863,1366.1030204516749,261.4730307840693
1896.0,2380.0,16608.0,1781.0,1379.0,256.0,1918.327900823727,2272.835307843437,16594.83049416571,1778.867481953434,1373.3283915931872,277.0915001710398,1847.5434340868835,2358.7679306483487,16586.24257657913,1781.720208698466,1374.9775507108427,263.60782301535073,1889.9231879894035,2361.155824862325,16523.215975997762,1772.0657260865753,1379.4376878477992,268.81726702873436,1980.9059958108617,2517.4226547583153,16607.083540104282,1773.5442457188997,1385.8089918472986,257.44772418627724,1955.3976428575493,2314.7996803982874,16597.75985108245,1772.195794063072,1383.570729277512,266.0397114728956,1933.0290413396638,2475.3934539762718,16646.26232214187,1776.9967110627965,1395.7638442844018,255.67133021149007,1914.6140295979976,2392.59625694913,16495.53809660988,1788.8705484142488,1381.7268955353202,247.36533358888332,1759.5980662462275,2595.8018579688373,16583.04227210666,1781.4854774633563,1384.473533501621,257.3092549275156,1872.5624847309703,2422.0282094849827,16673.13020221849,1783.7404433806926,1373.8810687753987,255.20600923400164,1886.8620406450527,2358.4961032185797,16674.7113430579,1785.163179113932,1380.2173820873497,256.28913383814813,1828.3282947669647,2498.407640910904,16652.899501234988,1786.2369965520672,1374.2562897722826,251.25324063987867
1908.0,2368.0,16648.0,1711.0,1339.0,259.0,1929.3258737317428,2444.076571394068,16608.391782649676,1718.5135528011656,1344.6528476131543,256.6556670845277,1800.2597505345227,2244.2068921160185,16689.45025469028,1692.5116045293698,1334.9868677556349,253.17704022243356,1964.781559341836,2324.681468541615,16920.659739023966,1710.2928381984539,1330.882792566929,265.63276812707306,1945.021047429561,2428.3647207030135,16771.441486572658,1699.0843698338906,1347.7706636422486,251.28788556358185,1738.2404487041501,2204.3106384135185,16730.598939417046,1708.6043934018003,1333.529499020224,251.1098776234884,1896.7546443117028,2245.6164331967675,16713.43020809604,1715.6736296825618,1347.0632725637938,268.5832992905229,1905.8840379645112,2277.9580165953744,16630.01866042589,1712.4778438153294,1320.0392747475044,265.1908222540291,1821.4895056880057,2344.2928929801938,16671.889887684207,1686.07858049901,1336.498525854188,246.6209934813379,2002.3364101569468,2191.89718813448,16612.937789377036,1718.9244641593607,1334.7979984726212,258.5696924516088,2000.8490601075089,2360.656768181746,16520.51599259288,1723.7181133861511,1345.0893174307619,263.41064261444205,1833.2453639314215,2209.235055260684,16549.91598358735,1717.9289395839567,1345.3517302696337,276.1562903306789
1916.0,2304.0,16624.0,1718.0,1370.0,269.0,2115.287551780866,2326.9844152962123,16479.290746852203,1722.3406985400036,1368.5308655202625,265.5394776859841,1676.0351690461114,2266.149685330805,16656.192332314477,1710.6904184203365,1361.9632392994995,264.54597037123415,1841.9219546480854,2297.416743958062,16644.378868740285,1720.0446894875058,1372.833801851448,262.861760762606,1904.600717153924,2049.0646362412454,16600.091441805052,1724.7288062987698,1360.7885506574728,264.3548856278596,1917.9454067393883,2392.5847606787192,16625.72430727424,1697.6693297274758,1359.0793393701392,261.1900575695774,1766.4411624227466,2429.7288915332533,16345.044139144451,1710.59175845641,1356.0561409916031,279.1312110225836,1901.1867084601529,2303.6021402716833,16781.775700030867,1706.9739432470274,1373.6980464928445,274.07481922152175,2015.7654725565335,2404.947957289531,16792.54248377296,1730.5478345372926,1374.257629634533,249.10576827655467,1989.788522625489,2463.338302286334,16563.768168332987,1719.3401360270873,1363.4562003635056,286.2172925712698,1968.9992512813708,2177.584134226788,16640.59587482013,1740.623702395592,1372.1385267663911,270.7006654157975,1982.2938335985798,2201.6996117195035,16583.712363278806,1725.3801143524522,1377.4761390190051,262.80811140016743
1952.0,2360.0,16564.0,1739.0,1357.0,271.0,1958.5901174752887,2368.4492624632903,16484.487213779306,1744.1917702563785,1367.5179758204958,261.99170380679203,2012.6303837969708,2556.1659491837386,16677.52469369927,1764.3522035297945,1352.5780275202928,262.4355602114129,2021.3175344632284,2306.3406286156883,16728.478342572398,1739.929837351014,1369.8802979270108,258.06494129099184,2022.8013987569673,2252.9771203873443,16570.022210708783,1753.3071949042017,1356.3886357878353,247.835763163867,1922.5842468260826,2445.1457385698936,16679.4968445824,1723.0097439913613,1358.0873106843746,268.47587168466964,2065.4537633017394,2436.8246559477743,16526.791649757684,1752.2135153739644,1365.1272087322973,273.929247465105,1834.1964440882748,2369.694501008778,16464.203871976224,1730.4775978397765,1363.58735320542,275.80960005182516,1843.4444687165274,2439.1014242294223,16433.87095315201,1719.864059425177,1360.871650621118,268.07176588020855,2045.469687274083,2398.747722280386,16600.606262832094,1732.006046959856,1370.411554644175,278.1648555573679,1972.063466439562,2394.7110599058415,16391.038609902345,1752.8955535999032,1353.2039476338473,270.8749278911105,1868.5120651184293,2315.8724598214285,16676.3357129675,1744.1362427868855,1370.5806520500478,265.1049321268023
1956.0,2348.0,16644.0,1726.0,1354.0,272.0,1980.469180648782,2345.5324341768737,16656.622548701824,1720.1713717912799,1343.3968145555946,269.0908679773852,1980.8460372657419,2350.203739481253,16656.606578323153,1733.3632250820533,1350.4757191722317,276.40259464815625,1989.2232781633113,2238.12678585582,16722.08501082368,1723.4587124956863,1344.354213828689,264.33170593953196,1956.1037240848918,2276.7691548262924,16695.126047397225,1719.897761418552,1369.3826190372681,259.4286619054042,1918.0160293458923,2491.250192669878,16674.647381629315,1732.6884853680901,1342.2792723328234,272.36204297297144,2028.1710339463534,2196.475392362288,16746.059466686675,1732.2310733983034,1359.3955687246628,251.524866507391,1972.4598876853693,2356.160015620978,16627.068383848327,1704.8795492080944,1343.4604843428078,265.7270219444974,1862.5459163855787,2235.421562681414,16558.59617238925,1734.8036072784585,1353.1908300866328,257.33539639071836,2052.2793734142692,2376.5238396838877,16582.755734555154,1741.558282964495,1340.9165955663411,274.1204296260386,2017.1081505639015,2503.436110012406,16555.67044263806,1732.7121724669166,1365.0124753502519,273.39216546516104,1927.7551547078006,2269.2349600092984,16682.7660080849,1714.0075366999272,1325.0749301914666,281.22111608370733
1896.0,2384.0,16648.0,1735.0,1362.0,281.0,1889.7542098608242,2452.0092369574545,16680.104690575477,1746.4924130278448,1353.881396289271,307.12198151086204,1935.10436165773,2332.8322920919686,16689.589612881555,1735.331677554283,1345.499010633552,285.90388405237934,1972.2050549787596,2449.0805768800237,16439.49537583386,1756.0859040029463,1357.3533598589815,275.0910386828684,1757.9079157667236,2278.1391824472275,16587.662211900544,1727.1298770563346,1362.9195753015601,288.7155177536349,1772.022960573616,2249.4137573381386,16682.303526720985,1743.332146071578,1368.8862894485392,280.8841074826755,2001.9228369388175,2354.803289154071,16815.82736912773,1730.796238071059,1358.8684614541255,292.49781604941614,2001.53811522463,2396.2070196414256,16644.502878566713,1739.7750131177431,1376.6527298557185,281.9472679057976,1759.0594534625986,2493.652509933113,16594.251881118693,1746.0139059292835,1355.3505279710234,279.23236979106883,1877.3319881158725,2360.859302408853,16709.67565402639,1746.9455449829013,1359.6966526952958,286.0619664211167,1783.399250668453,2491.086879984274,16670.116416930203,1751.6028813576747,1364.4283845324737,277.91797645098694,1893.1878819304784,2256.7876747995642,16548.64872228445,1737.4621073053445,1353.4352705336235,285.9825971281205
1976.0,2384.0,16652.0,1746.0,1394.0,298.0,1939.4395419193106,2391.6138175010738,16540.528737838646,1738.4339715689982,1387.299804540576,286.86010052577467,1990.0589776431073,2466.3187164815417,16614.89256128445,1741.5221127322652,1399.4559454049775,303.91613652326964,1990.6267436897458,2473.5469410736328,16648.35277255576,1736.0217875456508,1395.501810300994,317.81092450701834,1959.892154044473,2166.7759604712487,16876.21914464651,1738.981473974694,1369.6301157101839,299.89390358599195,1891.730778788423,2338.4652942792363,16852.49490464105,1766.0867558276727,1404.7120585083915,310.5646451175047,1944.5636308825476,2370.1130479282783,16665.470375125817,1741.3675969332803,1401.3632833606505,308.80614055680235,2108.199266567385,2253.8451775259555,16570.738724485764,1762.6359747626454,1398.768135668782,275.23041191619285,1836.3812168801928,2336.585278923792,16708.159448028735,1753.0831097396142,1397.1331645304767,295.3593960903669,1910.2022854246459,2442.5835482411812,16760.770902585242,1754.831365680632,1383.0503050412103,303.3009376709121,1829.661754420389,2418.0210855127043,16562.013039094327,1748.6736062850966,1397.7042071446647,303.85369849767113,2004.579604527997,2423.0403614407073,16639.598756609783,1752.6051700052997,1386.2429215183754,282.68709364513995
1944.0,2376.0,16560.0,1782.0,1364.0,300.0,1894.9744013901252,2506.164349441164,16587.857486283763,1775.4196088664105,1359.4324956232995,303.47808728159794,1917.417523981804,2366.749024882668,16463.890441238484,1793.4888243816688,1369.3823045068928,305.03425443977255,1865.9748992898515,2216.923049575122,16709.944651783688,1760.6790086006417,1374.9136012170875,313.1836678174967,2054.4780997674316,2305.0625304775995,16513.187883899383,1790.4161524032959,1368.2485697227235,301.85367708365715,1948.0935144271987,2428.076997297524,16661.87281807567,1790.6728373112674,1357.2741190095599,308.8346736979786,2037.5466131121373,2388.95037324623,16474.858911958578,1794.9257668683497,1352.7552037879566,285.33580602927253,1832.807084780547,2328.1872107479944,16498.47722325689,1771.992585626711,1359.86051940392,293.06942604137623,2104.977209389274,2346.652949883289,16556.755801746138,1799.3196598989198,1377.5634870216315,314.7848922048697,1883.856624002087,2466.7390523094587,16571.149710632315,1776.0509478893873,1350.6592290900326,294.2040953467287,1997.35366536043,2287.4532753199423,16645.585779941637,1780.5670784371098,1371.6524535709843,302.3284000209249,1991.7742833581042,2328.1047844727577,16615.293909597673,1796.2565324628295,1373.26177700009,319.1316870149986
1988.0,2656.0,16340.0,1768.0,1345.0,314.0,1861.5111432919393,2527.225205937193,16160.360534159141,1766.8458775040506,1351.7726455103762,308.03571418885525,2012.2396426606088,2671.997478097146,16291.532747907137,1768.19687013889,1354.343065178814,313.09054777703324,2133.750039783276,2573.1106357681833,16350.2861121533,1759.6619002292086,1347.8426153625958,314.03519550111207,2053.9103499530956,2730.6950018057228,16439.8073508956,1765.6581833100447,1349.6072268236633,314.6925541849893,1934.692647763042,2674.920020988902,16288.9110418223,1776.8873968613811,1357.0354815427604,304.4291689233226,1730.499666882295,2500.69136733179,16382.086955307761,1782.3446218802003,1340.0196924531274,306.06090455542113,2079.3467392098555,2668.666640428011,16244.378706265234,1762.8113772852732,1354.382132365654,318.11317634302446,2012.6836567210182,2707.425173280298,16173.282901410528,1778.3931796889221,1342.5845204177972,313.7991636938845,1968.7961813052586,2518.561862441539,16325.497237103054,1783.4611178982484,1343.003488488179,315.8111954866146,2147.526760158126,2683.0300093428423,16316.112406577719,1752.2346408707988,1347.8332299219542,325.6595064514849,2108.1015418403476,2598.999264564346,16315.7129089926,1762.8636856446228,1333.187571455278,307.1458728851011
1968.0,2476.0,16572.0,1537.0,1224.0,265.0,1895.0524792407557,2269.0202693739434,16391.886657500698,1557.7666603184912,1223.0522664479104,266.7519308432232,1848.48464771585,2459.907014187139,16518.917730974536,1551.3414267999833,1208.1009108051958,272.4434818286384,2007.6099379112873,2296.5740035973968,16536.887608317378,1544.6511580579177,1225.0108255557939,262.61759501944607,1826.342408473132,2589.049309061613,16556.848068684332,1557.1217929500838,1225.688764683204,257.15881433250075,2064.848260420489,2496.5299382649773,16479.50392714422,1532.0083093027647,1224.2351908256499,269.60245938810766,2083.180184060423,2448.6409060863643,16532.97248557853,1520.4158996590654,1220.9556208929105,267.54223675174813,2021.4186124442647,2411.8190212012432,16630.610477072667,1541.488774351651,1216.7152433099748,254.28070066659782,1904.6896494018263,2531.3976163733664,16369.787695247718,1524.7320193647552,1223.5539076102666,261.9081280287419,2028.8077665950323,2572.2950666401885,16687.588312535194,1540.1144064304399,1221.7487812153752,255.4606212138362,1953.3165972229028,2408.9290725603664,16542.410556733594,1545.120558014889,1219.9836904752617,249.35396203262403,1932.8217614320283,2535.187242808985,16560.53650127491,1546.9502995887426,1224.6853099807952,266.6440823921126
1932.0,2512.0,16736.0,1741.0,1340.0,272.0,2106.2379275932326,2641.650866341898,16597.306683185936,1744.2730457291161,1345.7608750115944,290.8471921273107,2065.3584481004727,2435.944625666398,16759.08845351804,1744.0068369279365,1332.0981358948954,270.0196298345883,2059.711428559577,2503.853561376329,16772.180316818438,1740.1458801393158,1354.5557664882692,283.3715314411315,1949.828522019873,2471.348088588226,16807.104263185924,1750.0807817824627,1347.8281400776752,293.467582030415,2035.4977742650367,2488.305111029688,16720.85161779622,1742.0204145189605,1363.577326543215,273.50690454966394,1955.7126738325894,2348.9898011485784,16749.752457016737,1733.2570275712653,1329.5937295556723,283.1586274415237,2044.9072908747412,2524.9165844060935,16790.632331860972,1738.8780450233378,1335.7261085590353,264.03613729740323,2046.8525816638585,2660.1885785257036,16916.508414319855,1757.6632616245543,1344.9708627325501,278.50787627239987,2109.100762308168,2519.166083646825,16611.791475767724,1742.1403284277903,1335.385315797037,268.68785388211467,1982.241543037573,2230.3082950151756,16731.630859861478,1728.427297164273,1323.7114214211538,288.3213330839144,1906.0964687388218,2651.4530263276433,16738.162718987453,1741.464135305137,1333.8829837271476,263.09326994131004
1920.0,2492.0,16708.0,1718.0,1353.0,267.0,2009.2620146657223,2492.8624591821076,16729.63709068847,1702.0303546206983,1345.767771441441,256.5083722455648,2003.8818904504967,2407.727905422118,16879.707709977138,1713.1635888350909,1350.067089695627,253.93230580072645,1838.2624540516128,2574.5435770925346,16689.127948136844,1727.3210608396655,1366.032547945507,262.1458467733339,1882.7163619552864,2403.4015074594117,16969.422504211147,1725.166350513927,1349.876776175235,267.75752471938165,1946.3293305636994,2493.5380009762093,16661.06766484796,1720.0931397662682,1371.0811969871086,278.2167503511773,1855.6147025577225,2560.6296908690892,16644.562011468246,1721.9899344550627,1363.7628038175424,275.61072256340356,1814.95671067578,2634.5696318243968,16880.83316328383,1715.3665256010408,1347.734626994636,255.3468400772567,1848.0507246659413,2448.8519024815823,16747.73565222727,1718.3724863415691,1357.1386699862765,264.78256688158706,1935.719919634614,2563.998733694916,16726.350507712436,1717.3420577320614,1370.491015500945,268.79082076209113,1909.6254687763105,2453.4690039383195,16645.18654748267,1721.4593672819929,1365.0251824390455,280.40493626071424,1875.3777293622288,2622.719754580177,16631.476436615423,1720.1727980602511,1365.348651769443,283.7058586656397
1976.0,2336.0,16612.0,1736.0,1356.0,251.0,1921.309227138956,2302.140573646489,16647.773063729226,1745.213105639172,1337.0934378123286,248.76357289216276,2030.71692439162,2374.893655083844,16580.44216962666,1751.122790908661,1353.6372985374708,251.81459155178217,1956.7990735145354,2219.0463832874325,16672.842957390018,1718.244921472217,1362.7094733587987,243.68201623610682,1843.0463096379306,2232.7169608524455,16680.322677580014,1715.1635102655403,1361.820202017991,247.30266251835837,1852.3438286526844,2352.6099528684385,16675.134331578585,1738.0173246546249,1371.0778703674364,256.5450726147762,1803.120145536362,2393.8196265166102,16646.69570006375,1734.7572512223337,1368.238280458293,251.23254565701393,1950.7439937461238,2249.167224073224,16661.931745333146,1719.806069171472,1348.4368652475046,256.0673039017336,1966.631503783629,2192.749075238085,16451.976597739784,1713.9907924700951,1348.9414585366249,261.12553592201243,1875.2969292978878,2255.434639263759,16682.43977430131,1727.4811613217187,1350.485369119038,240.7972527727787,2031.7338003884515,2360.5089954350046,16588.961216343087,1748.8604332131517,1354.5713060263272,253.20560423779395,1947.2873502536536,2306.7662767149836,16597.860043671917,1715.3063021030646,1353.9979544960097,264.23340380921917
1912.0,2340.0,16588.0,1754.0,1383.0,277.0,1827.3049544887444,2223.1689244671634,16620.556282332927,1756.1251120439715,1398.20945357025,271.05138055709284,1881.811197122134,2188.4941627540934,16464.823538684537,1776.5021179699604,1379.214067218402,269.9075316962338,1832.5079486558116,2409.5921344005023,16610.358069948834,1750.5389350400299,1366.045976191167,282.2669198056264,1781.3073624430817,2319.6492471968763,16507.473730754944,1750.2320637820549,1399.0931650573168,284.58105860806137,1996.4752277930145,2356.953686177473,16644.95594745662,1754.081833154753,1392.6059147959784,285.58259931000526,1719.9027401932112,2316.4708374061092,16608.261013448497,1750.4170280397036,1367.7081111242633,271.9424704890006,1770.9059440691217,2257.7269423400558,16471.924840709697,1746.9388996179082,1390.754894680578,279.28705900998915,2045.6974415989262,2364.726274920571,16609.342754805642,1735.6097341372356,1389.6405317997364,294.69782735138295,1973.4796631704005,2394.5541861619818,16662.800597267906,1738.2572075772707,1383.3631658701559,286.12698537051745,1934.7410599315276,2459.501778914155,16550.41917439689,1766.703035500287,1388.3197039181264,296.05236396602123,1803.1810187013473,2368.4123305691,16470.621527385058,1761.2009594042047,1387.021273935268,265.9119855774738
1896.0,2396.0,16636.0,1742.0,1337.0,244.0,1946.7425544993077,2491.972078100227,16618.194506879765,1733.8492691557726,1333.3455517999969,220.44149268199897,1975.425530251185,2481.4257932013734,16505.83484290476,1759.6066394865793,1337.6043778989792,238.80746229828483,1877.0916899933777,2271.6463486593093,16613.55771502577,1741.6781519120848,1332.2791310440089,247.41643461289442,1867.1685375029185,2520.107723184697,16623.172062909747,1729.919680647807,1332.0587587280268,239.3401941749231,1921.7417284435273,2336.5621168614844,16547.112959304377,1739.9848034230993,1336.2009900160926,224.520745424449,1991.3663573248045,2289.7576907883936,16762.330263601303,1745.8360322930287,1328.1728754073897,249.78460720032706,1863.990294978612,2344.7504529862445,16514.60601190643,1722.8767555200916,1336.899531530494,235.45678290470323,1920.6500307690792,2535.1770518395524,16698.38729320649,1761.4017104282232,1353.5491980069835,252.26586790694714,1878.331617086568,2547.5098438031064,16450.173687220507,1751.0266467176875,1327.469066669673,252.19411612031,1837.4520176741853,2451.831805832872,16725.594669690385,1737.5234475182326,1339.9297877064919,235.41591385961604,1845.969859775266,2407.1779350009224,16758.575194868212,1740.64718604502,1329.57152839721,240.5643129753805
1916.0,2332.0,16596.0,1743.0,1337.0,264.0,1864.3954261054853,2464.3285398593903,16585.437650737276,1753.0889239622304,1339.0616349215584,267.55161495812797,2015.6937886486348,2438.2298495530454,16747.123912739153,1730.806074089553,1332.8970604099088,272.8245111008555,1880.9343419732106,2353.292441564991,16616.273798945767,1758.1424293933887,1341.7813718218788,249.08261059444672,1804.6902118186053,2373.942962963425,16539.605645796684,1733.9521879364559,1338.3459712518581,271.0369471035407,1937.3339870858558,2351.028363740867,16542.293426782595,1733.5731425737072,1323.4875705042616,267.9229251085315,1870.473473693367,2415.5856959326475,16604.3218347256,1733.5021306210401,1352.2700511307785,276.0918071732885,2059.9631688369636,2244.2445923712994,16651.21823056238,1759.869185043719,1326.960541779269,274.68428601331055,1912.8701046663446,2406.250056533016,16732.81235348861,1758.1272215990682,1334.3386320400018,270.56936302617095,1921.057387851055,2344.4548432306287,16633.523356388112,1752.0309561718218,1359.0961955925054,274.3611095331799,1858.8936275459193,2358.2880177426437,16597.297004681586,1756.739105636439,1327.9255082128475,269.09563281717845,1950.8883849768604,2243.110481581373,16743.14259085968,1753.1115131059214,1322.93181902082,267.27034913218705
1936.0,2348.0,16596.0,1764.0,1392.0,260.0,1859.8437247146906,2423.945676680351,16678.697600138603,1758.7419910370766,1394.613685645826,256.73854773721087,1829.5240402783502,2331.574572400397,16587.842204989916,1762.8780645791298,1392.282534552633,266.3429458594095,1917.1271379962006,2269.255119883114,16613.01693200697,1761.1086358264456,1382.4118840778058,265.5266232936006,1759.2101299168814,2325.9572433286153,16591.08221927309,1750.8289492864349,1410.0719507637086,250.3305950149244,2034.743945041359,2365.026482396947,16664.93485422299,1772.2386138757695,1400.5980838208013,261.3728194695415,2189.1196979021543,2359.2324083539434,16631.20809450945,1767.4949351260664,1384.9034167650386,241.56195273960364,1884.081891675085,2239.5902840000613,16647.57941242302,1758.567935990529,1388.897742487741,270.49661557687534,2001.1571759367494,2251.9035567603387,16584.77786331509,1735.2735069821445,1403.2988370249373,258.0157845504141,2167.7424279442994,2295.6087059429688,16469.83015955159,1760.1221221941441,1385.041474868537,263.8490545517823,1940.820582271463,2380.8308289464476,16711.076974210628,1762.5047916677947,1399.5967660897027,256.57515831926537,1663.1475106973185,2472.3872440071623,16495.064760253965,1766.3974972529209,1384.5351224947924,264.8078127808292
1912.0,2352.0,16600.0,1748.0,1325.0,294.0,1736.361979154477,2255.4543081889155,16439.493809737458,1749.4325039555144,1315.5384960661022,289.53482723978084,1749.827690546759,2249.016217104885,16674.36057013264,1736.9173391517602,1320.4536717824303,275.84097669735655,1912.234340670852,2249.002272100584,16542.315962716144,1743.963984312437,1344.199246371223,283.00853646390624,1854.2836958231737,2387.822098834529,16577.02318880781,1741.4948261116156,1336.1360968280412,299.6690645996886,1886.1518428891707,2355.4903679274894,16589.304625129887,1740.8242616310563,1323.909601844399,293.5721516169665,1989.9557898400235,2317.280724020423,16428.556669885973,1751.5190589768451,1321.8300079506462,296.494623184661,1945.101923397352,2275.0475067228326,16516.623621448787,1736.8226695316655,1356.2826612740253,282.1777956152823,1928.0737708065717,2223.9688484353287,16560.71614574811,1737.8603635961103,1328.206330908067,299.3952362534295,1817.084706050991,2531.481017167718,16551.70222878828,1744.1460421395263,1333.5783353618785,302.9875317046062,1867.0666974924757,2330.5494219321804,16529.425282684304,1737.6565340616214,1313.248579662489,313.22258421218095,1965.521843280754,2434.78127291181,16650.078490443088,1752.1302157211703,1320.680706452668,297.29978977802966
1968.0,2348.0,16648.0,1743.0,1399.0,287.0,1918.6535012503923,2334.582683591914,16864.199095034088,1752.3735344873792,1402.3898339128873,285.98106048368527,1840.6648247686524,2470.6799096713926,16657.603483517803,1735.2042488615414,1397.2927118371126,293.272388289191,2013.4190917294768,2523.9780549950847,16584.86010387085,1746.3256614334312,1391.8451846053624,299.33731003335123,1877.3271606115866,2270.751241446462,16697.077770101252,1752.3729062813268,1431.8664623534562,287.88113233703785,1911.4372490868075,2430.95556314816,16673.575095720196,1732.3417403671908,1411.564837531068,291.7677455168657,1833.2309715481872,2413.0979535789593,16839.648005252922,1759.8762123117629,1418.2705292892074,286.8249890987276,1787.9093557543197,2191.8656779058606,16476.723536282956,1740.7076785796473,1397.1277830506488,282.66608859185106,1885.6430018459491,2497.118996580983,16586.958387822633,1745.3440214994885,1391.7261638269833,299.6978764623536,1829.7408784955066,2367.3852271836568,16467.910374214516,1740.0612276914312,1394.626890365001,291.23739712710204,1750.7609514206815,2441.8023238445876,16745.243920082095,1743.593463542726,1400.108840720278,270.4302936543303,2008.6357319849562,2334.325882784858,16449.03201188625,1738.5593642729727,1401.0805893109005,285.74918498717716
1996.0,2376.0,16664.0,1728.0,1388.0,285.0,1971.8352489579158,2585.944764617486,16749.44870974547,1738.1742258127647,1374.361375662755,286.6159855692972,2005.6708673351068,2485.241965596166,16463.436705166205,1724.952065117544,1369.2658777729168,289.8359031528146,1924.0706313345188,2576.141576601747,16780.671396279202,1713.0268456085307,1388.8071282175956,283.0745877130023,1991.989995284624,2425.5663071689887,16655.527543461074,1720.9031243986387,1398.102505326866,295.0558650627001,2008.8590221700192,2449.3714157318745,16716.817929183257,1716.1465655403224,1387.379325877946,269.7495837287932,2055.130017766615,2346.472495663561,16713.178329009825,1708.9771786263311,1394.0578212872224,283.8627247329804,2022.7009035780538,2385.5089495728694,16912.088661799455,1746.6269709736064,1396.3590895220837,280.917967625185,1876.6769668606025,2262.5278676404855,16527.40693802869,1723.1141199788192,1386.989989648851,284.53249866520355,2157.4342793898736,2315.0866450466538,16746.272086495188,1726.8779137433494,1385.356420066547,285.1114335246559,2037.2846726689663,2362.1428551582762,16810.231377300628,1722.6590497246546,1373.9409964408196,280.83029837383,2148.24973622626,2404.667635852659,16533.725412029056,1723.792544171712,1382.0518228309697,276.75705651921027
2004.0,2384.0,16584.0,1736.0,1367.0,302.0,1806.464721632162,2258.08927912243,16489.826551008104,1754.9924071511332,1377.5799781375315,295.43417335229265,2022.5603842406426,2382.2202095456482,16608.32935136737,1743.5195764892837,1390.3367380610066,303.15368753692763,1864.7793353753707,2340.987681244731,16600.79228277236,1734.9286270452558,1377.931714355674,306.05596437063645,1862.4452948139108,2485.9144094556723,16815.295298898436,1737.6445055137099,1367.406848315417,293.9654893130525,1892.315214338022,2540.459052268624,16509.280364292772,1735.1104432126733,1359.645436332544,321.0708185743043,2046.58078260627,2250.5711143061626,16714.030771127993,1745.1133356735363,1367.1836839014143,311.23506723641293,2136.114468681884,2589.700741324744,16358.881181309112,1744.2104849189484,1377.089154308115,306.8905092920358,2132.0956750501587,2227.601238138221,16729.236223743625,1742.056607864317,1362.5229787273022,302.30033710289524,2198.5693996733007,2239.6750737953166,16512.88791344111,1733.1354888373332,1372.2918788656943,302.3238864234227,2017.6264297865066,2437.590226808548,16579.977207054533,1749.424565828313,1354.4220490241291,311.6160769002159,1949.2352353431772,2385.965907173491,16709.550677004332,1734.654872761789,1377.6208290058837,300.2534644550909
1980.0,2328.0,16600.0,1839.0,1425.0,277.0,2035.9668321885456,2277.1203008137863,16628.01749310764,1829.0090281079665,1437.2459169036977,259.74938569806693,1840.687314492662,2448.898494007482,16605.429789509548,1839.870128224329,1421.3978288208439,285.61888600965074,1826.0834945215588,2328.4581575754755,16512.504225447406,1835.18358316545,1390.0595094450996,290.0248689374849,2083.2565675116402,2379.741289852761,16647.80879495723,1833.2934335473483,1422.4946850422064,270.06458923693384,1940.4807689985312,2294.8838225355107,16619.547847015434,1827.0980289825995,1433.3777969977668,274.3523706218488,1904.0737015451912,2296.2825082207914,16594.772698902085,1839.738964362456,1429.5044300477846,262.3918954339655,2027.1189640572686,2318.0668234297264,16519.220566063548,1822.1162061508887,1438.3172749143903,258.84104505343737,2039.046835321729,2372.6899325766176,16480.536644740132,1836.9439598348167,1427.5497944433516,306.28290806197276,2104.4484552299723,2367.4923097578094,16459.75690371324,1848.2789689686415,1424.509191146307,288.3866161391591,2021.417411452241,2183.4098844133796,16476.83779545918,1841.516578627362,1423.4913266850924,265.6317716365313,2066.91660518258,2377.689673106635,16513.690528257073,1836.5791343553174,1425.4197787097157,276.6902083936283
1924.0,2316.0,16588.0,1838.0,1468.0,274.0,1899.2614927287314,2219.842079017589,16864.633687166133,1827.4775293017967,1468.1358235191683,270.6956181616076,2037.1371909547308,2330.5890626056052,16472.06806154693,1853.9891403151541,1473.7389634187596,270.5911187653692,1998.6376008297796,2242.422642542762,16561.320931627615,1840.1338662836954,1462.8620917789842,276.25968303207395,1919.951874812588,2194.695931462807,16588.689637458672,1816.5903034008775,1468.8215062806046,259.24147068660125,2103.1333293387743,2463.324660163416,16708.136832651508,1836.5741162464062,1461.5023035228103,274.3798028970385,1704.0827049824366,2294.109625956309,16697.676839628144,1842.8622718359281,1467.6594117205686,266.43771456062154,1865.996961707381,2434.1505099504943,16612.154264721805,1843.365246860883,1468.8143261799214,277.4439644699345,2124.9445348454783,2435.4221500519043,16785.336108923482,1845.00016092007,1485.2503192379095,276.46299200763605,1773.461990170982,2320.6964958174617,16660.572340943185,1823.923267579088,1452.583373044442,276.1552915952781,1892.9061525437396,2259.927188538228,16543.24644289885,1835.1863155071194,1458.3953600003422,270.03637413822696,1853.9676193698067,2358.0384347762806,16569.848286086413,1867.6683331583506,1450.9572634841438,267.17413082183936
1936.0,2324.0,16560.0,1863.0,1496.0,290.0,1772.3793926792423,2275.413213959163,16454.944285958903,1874.8722798453782,1487.9466902179463,280.2777136304619,1858.7436445406126,2146.744137790859,16793.003286019477,1864.996310738319,1500.1038110363663,298.00723919422944,1864.1373059582966,2327.42564250805,16649.462857693896,1853.3063560171067,1488.7783677123182,281.69280583041103,1953.315136701279,2441.2516947922472,16566.89272191707,1866.231313972557,1487.4076011423094,307.7518641509573,2039.3909901484712,2436.681122114956,16556.699267064367,1851.428454315066,1491.5263984880007,317.74580907523693,1888.7895474110842,2384.209764510717,16406.638770940383,1867.215913057026,1502.7546154098686,296.2793570681765,2037.6256551363806,2278.4816479671767,16461.330736745917,1843.364118757248,1490.2533292001938,292.7309422137038,1952.8830222709066,2350.1566952147855,16705.740870418642,1870.5965166246112,1481.6495671286254,280.6031770021031,2070.7826035104526,2352.6330741955817,16395.116902656457,1864.0791772811126,1485.8298064422352,292.2084483684935,1848.8703667207183,2225.549088972458,16639.850041678314,1861.2827917079164,1483.8300663738626,302.1582644646484,2009.161580163167,2392.394830764496,16606.399185720908,1861.0617158590603,1496.640429301795,296.2875382129863
1992.0,2384.0,16672.0,1770.0,1373.0,271.0,2005.396918360982,2531.899806175691,16580.465928395915,1778.1695462649004,1383.072923301956,259.5375134243858,1987.0917485699822,2269.031280356908,16419.226244988353,1773.0766683484394,1365.80444378095,260.76590984518367,1974.1769280379208,2313.871980757382,16577.13448987997,1762.4137388616707,1371.1045078167274,257.90033165830675,1985.4560952679599,2283.2330675790504,16780.667250417682,1765.310468318695,1385.3873150375873,285.5092776345665,2116.6856273539383,2313.8018323406577,16530.318379879678,1758.974975961864,1373.812206294943,272.70815297564013,2000.3911998010233,2242.627987514789,16659.76121581518,1792.0712772689635,1358.2327392882535,278.65214298703904,1947.6911429882773,2568.000485437016,16676.01977046609,1759.2321291473763,1383.9978900733283,270.25704009571865,2149.0278887801796,2434.5012599174265,16684.141216477696,1774.9400886275623,1387.1695646045564,274.17045457749805,2079.105747322355,2414.4002966577236,16526.203854156058,1763.2150079687735,1360.4398006374943,269.285302302132,1850.1000795986722,2344.3660940882237,16812.974611718633,1770.066265071943,1377.3761015900882,257.65140995227483,1981.2538011319446,2455.640657167493,16695.015650958903,1762.5229419880889,1373.0342015975164,269.7649725349558
1972.0,2332.0,16616.0,1715.0,1342.0,278.0,2166.95665906342,2436.679533246083,16649.69039964435,1728.8785934004918,1342.0099706159049,282.2531218572959,1974.6866706166008,2327.1144320701683,16610.138187040488,1713.77038730525,1348.8493951332098,268.11221427021286,1844.4519122642955,2336.6757487821465,16585.078647872386,1710.0888653600184,1335.4354964569661,287.5839457089598,2003.6841491849789,2408.0919006831377,16514.863346591406,1708.9319808902712,1349.3211836023142,273.65024025309924,1928.7643214802529,2323.1807663721647,16574.56103920713,1721.4452272814256,1357.1334327796856,284.0929733593054,1981.6138915172392,2408.6349299008502,16560.2658495904,1724.1205072335124,1344.035397891307,266.3634726992688,2039.8581903466497,2425.557214038035,16621.51993922196,1715.6746768861667,1343.7242061506788,290.8179467029071,2042.4201259861316,2341.3403282679396,16717.068445983943,1728.571375035024,1343.820835210979,277.9378459309663,1960.8698778582273,2201.654799455289,16607.3823188462,1714.3356827911214,1343.3944905018834,267.8774725059326,1872.6279113373364,2462.097652584223,16655.404795298502,1708.3241880233086,1358.3290306002311,280.63027947215534,1936.8707877370443,2391.1466562542414,16544.151573867795,1711.078552331574,1342.1244604478736,272.4512914804413
2024.0,2296.0,16456.0,1903.0,1466.0,282.0,1942.669146096213,2472.3704261866187,16430.001351842264,1892.0095565920487,1458.8932181939847,277.21010781180996,2149.788104399917,2270.7210653822244,16521.776216945065,1892.2989457832068,1468.6250344955092,272.631019658257,2148.1787551870307,2079.514572822855,16501.43638904391,1896.2077406859112,1455.740433473732,295.45088538189026,2048.5760982309152,2217.123093604237,16671.009630048968,1924.543150334136,1466.4925672519178,276.26150959957727,2018.0588108077898,2380.460154928206,16366.44583935349,1908.7659575851667,1466.7781859923884,286.37163190640405,2066.8201745180977,2260.0635569819883,16572.944083642935,1899.9044085798214,1473.7626132141331,291.3009527573815,2123.449313460146,2314.260501036454,16524.51902555081,1907.061604611802,1466.5691726731025,291.62815988211696,2010.5934791063455,2296.631093023767,16512.89892441719,1901.007574905048,1445.8859150202466,300.7791191427231,1990.1381841814778,2256.649678692985,16437.991531048337,1908.0134824016973,1491.6312780283597,273.14207173489825,2052.151580905049,2283.4737423956144,16312.852081278033,1912.8716408030118,1463.1963866175597,278.12828722877276,1988.9873100323805,2161.1057734726082,16462.168569556,1901.388917410293,1450.3879304807256,292.57652061664567
1856.0,2448.0,16792.0,1772.0,1394.0,285.0,1955.500032100133,2307.993267230349,16732.433307230833,1771.6633047214304,1380.2739321854058,289.88604000767936,1848.3501541907874,2480.63133649097,16894.024926072074,1777.7874948189701,1388.8555631595611,278.77947286101926,1846.723616548814,2388.5653583524636,16835.08026117548,1770.225339419952,1385.7971344616406,286.0444653755857,1826.3102722841018,2450.4287219776106,16720.81126979764,1776.1757102218266,1380.7165718470062,293.9090777816041,1964.1803184597704,2372.51482564641,16901.49236685034,1775.9539243724928,1385.8134292662592,296.59840033062886,1901.881713308473,2585.4913047691384,16602.639328172176,1756.5013514281716,1389.507837889322,280.44361762190107,1670.7275518257998,2530.4213180767956,16774.384130910497,1782.2418744499792,1396.7532198933031,297.09215018008695,1875.058961482069,2388.342072241996,16983.655404314875,1773.1241341878936,1398.37277432848,300.56287598833603,1872.3855655529062,2237.464790454851,16829.24867461816,1753.4494813246274,1381.9008391475395,293.8171431209749,1891.4493492412253,2272.8464476179583,16938.88566295251,1761.4706743663899,1392.3109483442543,267.1437544800608,1889.1592837850883,2228.1374984946715,16798.466189487608,1779.8539834273174,1405.5738674923998,300.1299895052452
1964.0,2376.0,16632.0,1625.0,1247.0,274.0,1979.3660197589857,2449.527490154553,16564.057304175774,1626.7781514353044,1262.1312407827797,276.59174677209444,1846.7470526202633,2398.45172352345,16669.154002564177,1621.899943736229,1252.8060483484605,258.05861062356263,1999.2656289323374,2524.432347353625,16576.076834012787,1615.455131853093,1255.998666093999,280.8893080054995,1949.5786483041422,2422.2483417149365,16626.117207871728,1615.4392209567977,1253.7030940118327,273.7606527798953,1793.0873215095335,2260.552631119847,16726.0895797647,1618.7943134982274,1244.2785093630496,274.458040091605,1830.2832342575484,2355.858347870799,16603.686478344804,1632.7872312282782,1242.5795740847586,272.7040257544751,2050.584605511357,2263.3134778045787,16517.22440688344,1638.2637181350992,1251.3062742233774,283.14505577872495,1955.891339547059,2392.1311901334952,16748.118249559906,1619.2886971430953,1241.3020521440467,279.35416222872885,2043.4197754018955,2216.4307572921944,16752.415653227326,1609.6582723079957,1236.8890625248566,272.46399831106123,2119.4146692780255,2335.3127073191977,16696.521185603106,1632.8887460639032,1246.0907467707011,259.06347944189065,1907.1034104841967,2513.967803565805,16617.532520557845,1623.9258062356519,1228.1842924455016,274.47844658222584
1952.0,2404.0,16500.0,1738.0,1391.0,302.0,1903.37393718378,2417.6894253583555,16499.347928778905,1744.4134946574643,1388.887147095638,314.27818169733496,1835.45070034886,2353.412051205049,16396.14717587677,1726.7731323590408,1375.9393595527015,297.9942209547252,1915.0147729327496,2472.9314973567666,16458.664072718453,1740.175777969632,1379.9743525128758,297.5822933114929,1836.7792603611997,2322.627169120767,16702.41456672356,1726.9533724203493,1396.14362987954,299.86142023324294,1997.8432136971553,2468.44745168144,16470.268310688596,1721.5061266429009,1388.2824087439724,286.04797455200054,2061.689192951709,2390.4175524592174,16513.751345374083,1760.3412689015913,1390.2345687725506,302.5649505303488,1901.3593010766058,2424.719114261536,16379.422106273749,1744.636075378409,1395.7891597123341,300.4286579249583,1883.0384345133161,2438.3579297556803,16643.184592214515,1723.8745090856958,1381.6607372458964,281.90918734745185,2054.7800952736216,2451.699818622208,16501.00778085153,1737.50559440142,1395.3017538321503,307.86586738815004,2059.574208105379,2404.6754254587067,16486.59655136608,1726.1804367688785,1398.5046921383234,284.65068102189605,2096.7434022542225,2589.2996080655134,16575.164461727032,1754.4155868462087,1390.3599303131682,313.22820338914215
1944.0,2388.0,16604.0,1627.0,1306.0,272.0,1931.5379853047582,2290.3384514380905,16569.66293751466,1624.944135877293,1303.0703099728532,283.56526768216753,1993.0986644641957,2570.6128518736155,16635.633740621535,1640.906413700899,1304.5252893438255,270.4560742401928,2015.4503158197228,2389.6383744865143,16573.568081025547,1617.6275636335718,1302.6498733796268,293.39944464190614,2126.995145440579,2364.9582321525036,16513.563917978267,1617.5222406871028,1303.296870097939,263.07530839290763,1958.109135104978,2368.50092056392,16541.483267948664,1635.7765268842707,1322.5670512839315,274.97381127259314,1873.9666000205177,2245.1560440715007,16694.04030138432,1619.1944419718566,1320.6394355767288,279.3342277571957,1958.146390014251,2480.0676848036223,16612.89153270093,1622.1116948865674,1311.3719172150368,265.7053791282702,1964.144403967303,2251.084414893945,16805.26052745529,1644.2031579249872,1300.9511715861026,262.4482922721873,1844.2700019326007,2291.8374494516734,16636.056894089546,1633.0413638556956,1300.451954104929,264.793392145422,2000.7712358451063,2565.528821067514,16545.62284564238,1615.2243200146509,1320.1136539921927,274.43191761587553,1969.0093609366277,2418.19397059217,16562.116621661407,1628.5435803911523,1294.8736684289531,279.5278771554464
1976.0,2396.0,16608.0,1597.0,1290.0,279.0,1960.5980668987063,2278.5145463522745,16506.482753500677,1588.381750658384,1277.1690748503627,285.4446478282156,2053.7028685252617,2447.853570867011,16583.70176857648,1608.817513527546,1313.5287497471559,285.6181272809578,1952.4320490026882,2466.773514812028,16839.20259050443,1596.4264783675133,1274.2724957790645,280.5863324308696,2176.8706518686104,2348.9659736067124,16734.86882357164,1608.155797884578,1276.1931244149212,265.64763416823837,2029.4430565671046,2354.182242855977,16351.113816590936,1598.692112609618,1292.3399541165752,286.0575523891427,1822.1114017089835,2503.744712433351,16485.78462035583,1605.2215407526578,1294.113892817776,283.59259563435455,2029.7079718238947,2387.8252907012584,16577.727784448885,1599.4225960801855,1308.6979981861257,272.24967643734294,1930.1307899872018,2395.130269458401,16782.308062223427,1593.8622691619398,1265.6147169552523,283.5516626977831,2118.834757871896,2409.2335547618727,16668.932163558304,1607.45113908333,1285.5618954396314,293.9768121049538,2078.4991551981843,2634.56337835648,16657.15433307091,1600.0139307806887,1300.623509589155,294.63280703028244,2034.016679417689,2320.306176962811,16456.05177400471,1603.9605842563885,1287.2341998584766,271.25011032822
1972.0,2388.0,16556.0,1686.0,1309.0,297.0,2026.9026522904205,2303.4267270971945,16506.077211842032,1691.1219123576884,1313.4432766585621,283.98729659562133,1993.3824516248199,2347.951916915872,16549.159094273313,1694.5545993748276,1307.7747752207292,309.1741756167101,2025.762354772385,2225.063632327789,16533.41103114652,1686.330636147774,1309.1337722041433,296.78291190605637,2147.2381863965447,2363.5534865024883,16598.24462250805,1698.9156235809237,1303.3002833117487,292.8403868291422,2101.2208283773275,2576.4211615088516,16498.670397462716,1674.947037322102,1321.3807101288771,293.61142546896156,1838.2174418103045,2444.631274196906,16630.312602877035,1688.439855133425,1320.5504034819685,284.8976311029625,2058.746075945229,2284.0422985635046,16322.07265906421,1683.4353160670598,1307.3070386008321,313.3117947705413,1828.0741817269814,2307.213675432861,16636.715674205225,1675.978760380411,1296.0250614231534,286.47798504257173,1986.0436740741231,2408.7145095026294,16658.53850794503,1681.4503084009007,1296.6158312301488,302.8164166274291,2075.8244770757537,2394.2071676113237,16691.746363795944,1691.5973437546438,1308.101184674903,294.31905070944214,2069.0188603683278,2522.337681961673,16575.648622269702,1667.9668181629402,1301.7144343102907,292.4597358404026
1924.0,2340.0,16652.0,1646.0,1287.0,291.0,2008.0754007522335,2168.072434785604,16472.20318864195,1655.5116265156425,1276.6895767862502,285.21418377523577,1837.6849636534637,2419.7832180630785,16508.200905763853,1640.1756962493528,1284.7458423170945,279.91532082803826,1794.9742230886998,2268.3829054677426,16663.16826058171,1625.9917842665632,1274.4618483169165,283.9131440298762,1981.0109628437153,2391.8530989780147,16788.527688947135,1617.10458224341,1277.0582845431263,288.49105446489756,1904.6138076891748,2485.240949953837,16488.682843689752,1656.0164043675784,1271.3535965799724,288.6087106182428,2048.603133210616,2320.68589184616,16730.776340628086,1656.2328780760338,1289.6709316373647,307.6501474838069,1866.7582443701328,2377.5547584364217,16700.38348659384,1629.6562282939979,1280.33030445117,314.2036625182786,2088.630940989573,2518.9068822174354,16627.494565755296,1656.6589448661289,1306.0121492606397,289.720839866806,1871.6655932419465,2338.6294550576845,16664.2647595971,1647.1804852998957,1292.7060613367387,286.42018593526427,1908.5777829459234,2238.6283285858485,16693.999347917386,1643.3502477710474,1281.9404019645403,294.6573519964579,1993.024491331363,2276.8967154696124,16665.65848037224,1652.7429489480423,1301.2066674475757,294.81278866542004
1900.0,2392.0,16780.0,1821.0,1461.0,298.0,1935.0285346403489,2413.3601721903237,16767.32981258622,1797.4907340804155,1464.3940412977306,305.34666306957683,1852.4772391825827,2314.8568856798756,16495.26224166639,1818.711532641806,1456.0322762329092,295.66341257588067,1876.113144129594,2414.2517817503035,16745.023254949643,1833.993293792511,1471.9210555504667,305.97149454528414,1990.4107108198582,2493.0720853078005,16907.827752680467,1826.1845534864901,1473.307926140789,295.3033096767995,1825.7215188784028,2339.0246886151667,16725.0895646905,1820.9325005580804,1446.8204640683182,279.05965378486354,1815.8253115526409,2281.9369559526835,16721.766754324013,1835.2086746189032,1452.8706911655215,294.49265561037936,1946.236479731133,2444.257463928195,16713.628218827456,1810.7389754088247,1484.2411812283005,306.17949269787806,1985.7050251413505,2348.038401209723,16773.035085301482,1811.8582671038482,1467.2352721120342,293.01730709637127,1808.093428324586,2368.5722320718733,16839.550052987408,1802.4394920176517,1469.138566796477,281.79972056993745,1907.0940086413304,2395.051662996285,16938.016547426592,1809.331616279776,1454.5292189547429,297.1803769284516,1904.9961989361518,2440.4583696512077,16713.579818754286,1813.1568486896517,1456.9751964690427,301.1515728033153
1988.0,2280.0,16500.0,1870.0,1493.0,296.0,1870.405969252747,2234.3084522828217,16400.68273604101,1871.984278844321,1499.1091167739996,286.3546945778783,1929.1945786838091,2370.456422041202,16446.61145063418,1861.0539596910417,1479.2574631138993,299.32483890858794,2072.7525330075755,2315.2111405508795,16501.85908768654,1895.5114775484742,1497.092245213082,292.72937811583506,1948.8234501555214,2420.9282616396754,16482.502708256132,1871.006260373778,1497.0642684995482,293.10696632224716,2038.0345873563667,2215.8692832882707,16467.935705467735,1855.3635687830476,1501.7516999579514,322.8753909979235,1875.4465998750975,2087.6970209258075,16490.692291565174,1872.197057386521,1497.2203207130856,271.6539953730417,1958.979639303792,2429.6118891455462,16437.8948235355,1876.9962345771498,1485.2812955709314,302.0766715797141,1957.3023435295029,2343.8938746543076,16449.224022862218,1879.9764401741245,1490.692900345618,296.9721141690253,1919.1386039599806,2279.6915356164172,16577.60194074608,1863.8463385143818,1479.6028902727887,295.894701144351,2072.9574736404697,2244.25527689066,16524.1547271563,1888.4643604257842,1501.637507140794,285.67320430011745,2100.3206352906413,2165.7778438341966,16376.811026016536,1881.596511828963,1490.3752415653698,306.94287651164257
2028.0,2428.0,16644.0,1877.0,1494.0,298.0,2167.7191025798725,2307.5294417911095,16731.758699259968,1874.0296159091083,1502.5861199177798,288.5323886250909,1839.8453372420186,2676.579780416205,16683.128675668817,1879.4813972545483,1484.2637519902796,294.17376672287804,2035.0623029080004,2439.8670784343963,16882.071258392814,1878.8379848582188,1499.9016504567726,295.79324090012096,2035.8686898745925,2410.6879899508576,16686.077850103396,1877.9498858639818,1500.569687562387,300.26383196664267,2224.619655600579,2412.220857322549,16885.263875880177,1873.5200346546799,1476.9336198665492,303.91703667289175,2227.894231878348,2522.4585039107487,16624.542308973058,1883.2584497115004,1487.501566853847,300.9212571867521,2035.3920705682242,2360.9270067897032,16584.65004588005,1870.3442800467458,1504.2009509039444,284.39611065755685,1941.7732588544934,2514.79465438727,16657.035910467963,1882.3923752456863,1498.2639499817674,280.9756207342959,2049.750687240317,2552.102704500305,16831.10297232117,1863.8075871497042,1499.5436523020596,292.63322086533776,1955.9317843707427,2618.099602128477,16579.454432715895,1876.0598550364089,1491.3514690259185,301.8561460636632,1947.2595020139586,2455.2715034594003,16673.432434913677,1891.8575175938463,1497.9342998408154,300.23083388233664
1928.0,2388.0,16784.0,1681.0,1330.0,314.0,2004.7062213836002,2234.3431391440113,16661.93098684167,1675.6545702098815,1327.242417994026,306.37723646089336,2049.231838442122,2330.3049768704723,16868.39927887271,1695.4985136341681,1330.7355399197588,314.4899291924154,1993.1591080358376,2351.933519777972,16826.167770618846,1683.653382422132,1342.8041601206476,316.5594451547878,1691.2948440327427,2368.2885038460763,16920.17451223456,1689.5831696411462,1329.264675408447,300.5462574035906,2000.0018348226613,2325.1027235484426,17022.230106603336,1707.9817211382801,1330.4139100043792,327.8181155035638,1924.4785710904323,2211.5811838109194,16747.60019460657,1695.953986636807,1315.1888140161773,312.3028361393915,1697.9774284566474,2353.073698481946,16682.076020147513,1687.6174670785895,1336.332768646385,301.0006121168245,1895.14849346599,2414.5618635341098,16887.64771683065,1694.8031500816517,1316.3787566354454,309.59328122659565,1751.0032630687986,2402.241160670551,16782.2910885168,1684.7881002708393,1335.4227614208314,313.7511087004341,1852.003534753051,2456.3021885102526,16733.468791916097,1676.044423489922,1330.7985329675948,310.4252829758728,1868.7999892119808,2152.717967468392,16830.847585883017,1692.0474632348003,1331.0132230363854,302.01272103359196
1980.0,2364.0,16636.0,1578.0,1205.0,254.0,2261.925610409885,2436.8814122185163,16686.66283424663,1569.9746800977325,1193.6447707598506,244.06383629442792,1810.720329808824,2396.8581507432255,16412.98311234052,1602.499386275224,1196.5196807830978,257.28037776248715,2090.7814055573513,2507.5170553991657,16638.5135501044,1599.0815338831965,1208.465289935131,265.61891275275696,1935.7227188690783,2389.689619355469,16580.29791040574,1584.022806312927,1213.7901655275264,247.56844708356942,1858.059307689141,2329.901999889747,16644.538669051668,1552.3763871972833,1213.844074237436,256.3271654317166,1916.2088858101333,2401.9068161293094,16637.843264315245,1580.5629957901776,1189.2397822537746,238.50160436313664,1975.583476859808,2492.788069391554,16678.59816628431,1589.6731572723045,1199.243457212386,261.39605983279864,2148.5721056361313,2476.6064424587053,16539.481829813412,1562.800694675563,1202.7636589473288,245.03951991061274,1824.6187426276374,2447.9167192887003,16494.190702285414,1575.141985861832,1202.781677271137,270.11758427305875,1957.1364613680894,2311.320527416083,16617.062064842114,1594.014262365659,1195.3394261676149,240.31464799613204,2060.4018565940432,2295.875366005108,16581.482142368317,1581.363006803009,1212.4416970651077,258.1064745148917
1980.0,2292.0,16528.0,1930.0,1538.0,278.0,1926.7121829240211,2320.833745802849,16441.445266689792,1928.4616616288279,1541.0775295080357,270.96395478576596,1843.828215276431,2373.5924463219458,16594.96576734443,1937.3063841013463,1543.2652164528035,283.5780633103613,1978.465679615713,2523.40220423677,16537.68273677869,1926.0571461160303,1518.0105285130378,269.574275490592,2113.824076024051,2325.521730653868,16516.12984833422,1924.165355707844,1543.6270009964664,276.1136795894853,2040.378019819966,2387.840853518724,16527.03648111289,1928.1399521361789,1537.704100598688,273.3327260841528,2057.2201891316536,2347.095145251296,16511.61349257563,1940.6729517496406,1537.1288281134657,265.2399841723739,2035.6884273819894,2333.722220832873,16489.976812090834,1912.7776380009918,1543.8155678176238,286.6995611206524,1685.9105402377459,2262.898262690308,16638.476917021388,1920.080483250217,1541.7714012959254,257.73037472220335,1862.4040710133854,2348.4985572309606,16467.15741939099,1935.0314532923812,1538.4913021024286,263.8708890917832,2020.530986972961,2272.6515105250437,16560.423871981213,1923.0788101898086,1542.4598816303173,272.70769578379503,1880.9114595030426,2357.678678203964,16523.625210256014,1904.1301922924813,1531.3972304230733,272.2587028576468
1876.0,2440.0,16844.0,1819.0,1447.0,290.0,1994.1434609715234,2330.110300189222,16778.911916437755,1816.7588151654168,1427.4638258101293,269.8776164252493,1986.0060872526797,2508.0818677096463,16812.979420743155,1844.1937900713037,1445.7104892144637,288.7616221509164,1785.3752534099683,2430.5364405811847,16916.871706727212,1833.9312628914668,1444.360943312346,298.38930847623584,1854.6434582533882,2288.1586607744966,16823.038828656423,1836.0657903905378,1471.7747217587732,321.84968039888145,1840.8038051667863,2441.2825397218426,16938.447096444677,1802.4601029956016,1463.2556147759965,274.48437067972924,2082.519187564267,2400.215861916911,16928.3450340717,1831.272346559911,1439.9359855160408,290.87638295551693,2011.8607406277488,2453.899281452645,16861.242451459108,1816.6311192627998,1449.2294437026005,279.72136258287884,1891.1315783041864,2602.122641446808,16953.509177083986,1821.379334121036,1458.7013193233136,292.97639051740043,2035.5829881066597,2508.7401019022814,16871.833722211846,1837.102259344295,1450.2958244382603,270.3492295894449,2017.0304403097516,2629.443445931808,16706.893679312776,1812.5156861516746,1442.9152369463127,289.0911159278694,1679.7667212908061,2345.2505999692653,16916.24596721463,1827.5981868137894,1446.5544220086447,285.7880575668619
2000.0,2272.0,16348.0,1760.0,1411.0,306.0,1817.4884833864382,2264.4329306376744,16423.3542423098,1762.7547117228823,1425.370524094282,296.5513795817619,1968.7241849854743,2291.1571645130193,16257.995744658867,1757.5421165639584,1400.5605801240963,285.7358337903251,2006.4058430394703,2215.026308121787,16199.112351079133,1776.9180386671767,1414.484479483641,315.7445567563945,1949.4123020094,2291.6571192922333,16291.647899483858,1768.4342392656029,1417.6196004728824,331.2136541054002,1864.0241335779924,2411.3102119546743,16236.64838203227,1775.615153728453,1427.610582866622,302.19265003045257,1924.4020963200078,2323.279340539364,16482.53170934869,1765.1776044561525,1431.5005456010383,304.6763507453888,2216.420184422531,2213.5627515714887,16283.225213447884,1752.2146379248811,1417.0310393625382,296.4151448478716,2097.377312151621,2223.7546212343286,16222.066007077834,1771.9348413767868,1418.5560274699706,299.04426856443314,1951.6904963726452,2322.0509671512873,16423.670730264286,1768.340230874243,1424.0503624672378,299.12617246953204,1941.5976404371809,2256.5721909746944,16300.89836069143,1749.5738323145315,1424.3686603498513,295.05385236269063,1867.8505532205775,2218.6677553862132,16240.827667741261,1773.185465441163,1419.3370802898924,303.15562218661887
1780.0,2392.0,16892.0,1932.0,1544.0,281.0,1717.3194319576812,2263.741888651538,16996.131353868175,1929.8115455586153,1561.8418269271726,295.76202709214095,1698.9054757955428,2425.5754615113306,16843.16664434308,1928.6794473889463,1549.6105820481237,279.6687755144142,1892.2601748776106,2472.383400063037,16771.56877651343,1919.4729510977575,1545.7855611324799,296.50940312515144,1763.4457013737233,2347.445739821234,16861.01598199509,1929.9543703633865,1532.4239707257034,279.5394843478883,1781.091456030116,2500.4130409581567,17028.49964038083,1935.2990253001235,1554.565200151872,279.6010315418292,1758.5973062380615,2379.466263655478,16836.8154803633,1919.7738725711104,1532.0878711412263,278.72270424127595,1839.1984890171805,2453.3567454719914,16948.211848928786,1926.6160207092755,1540.612172529143,294.9698637958631,1908.2122572714907,2343.7960942036952,17003.67645320377,1935.6306306132938,1564.6250984120977,269.3860875708149,1681.8927957887051,2695.535516017529,16991.5265250163,1928.9771772525203,1546.3817586043458,277.6718006795081,1745.632564967628,2418.3263001515966,16829.70201516994,1919.1308760371128,1537.2975554073025,281.9895227830256,1909.1199819495378,2463.934031392359,16827.543661664702,1923.285688081095,1531.5225682529258,269.9413300841801
2040.0,2408.0,16152.0,981.0,804.0,322.0,2079.5057002976173,2539.7003921144596,16199.286045016845,989.3509963461186,810.9950425199083,327.36381922218277,2008.4181782944568,2390.2439421213676,16247.624712852301,963.0431408396114,797.6704464302724,318.74978117596334,1972.3825692933412,2525.785577510494,16194.827576622865,982.1622754588033,799.1186395473017,338.77138977439347,1867.867459948229,2677.574199649861,16188.978756424787,973.6981616350246,820.6424253216985,321.6054036188802,1900.526755188617,2248.918625007153,16202.867789079297,979.9321486118165,807.9163702981125,316.01526686540666,2197.404218273541,2464.8744026590934,16021.657641471846,980.0395978718585,811.953875745184,327.1967585652117,2086.085623030694,2343.1251020547875,16148.467769088695,982.1483692762768,803.2097342127794,302.37507751267856,2012.4734709942122,2601.6194429448833,15985.855337324878,970.7256087612699,809.3801596907531,313.51335723953474,2043.7154817654784,2337.068448882004,16134.685445808485,988.7888150981803,793.7364689241699,349.01983682078287,2107.1503412669967,2458.6694248319095,16135.018396421958,986.0380644393584,794.0539025756956,312.2566626608252,2284.194800105973,2350.6294427221023,16110.09104564545,992.1610407412046,814.3991930592593,307.970728495325
1728.0,2564.0,17056.0,1655.0,1321.0,275.0,1615.2303982068595,2404.6560854142094,17024.964625910678,1669.4072355773492,1326.3826550849797,259.5086918724794,1648.9959099759249,2520.1463477462094,16921.131280093898,1657.5977513090163,1307.849559255213,272.767687842385,1782.6787589139794,2545.1099012645996,16831.243515321512,1661.1770143285657,1306.233168995084,270.6181163345123,1734.7113298580696,2558.621449275604,17084.25067587675,1662.0506666680792,1327.323314568991,272.1487229263728,1603.2098083895726,2610.263704052088,17071.01308338095,1643.9755288946865,1330.8972865238077,260.05309646094304,1653.4028720663453,2528.96459348549,17275.105180132017,1643.6175229299981,1319.5219270167297,292.1704230535334,1664.0788248629347,2622.152828367777,17062.950757365583,1660.271106618054,1323.6307758373189,270.2092490028788,1770.6287246687784,2647.5639328371963,17093.91244531659,1649.774458223595,1315.4483622390683,265.951903122981,1698.6475914304594,2603.2158866534555,16988.317365925195,1655.8750999521892,1322.4322927203357,266.60212144281684,1558.8583301117133,2532.3153837279847,17037.581522660184,1650.2495692494151,1331.878323537923,262.1021965956387,1660.476496276631,2410.298291633463,17007.913444943813,1644.511946164298,1332.5293773915882,282.4975295929685
1908.0,2472.0,16848.0,1793.0,1384.0,274.0,1818.1664271748668,2528.976937793095,17010.684333061356,1774.7435515562197,1391.908638481346,280.4293622490114,1877.4890828830657,2425.5176170725995,16756.420967567865,1789.4290502918802,1383.12318186193,287.208155224674,1782.4026394904367,2489.066458459104,16810.457637121213,1778.434185988166,1382.3289778503452,287.67156062868804,1961.2143472107568,2518.1233189872896,16811.52926229992,1796.9810409917698,1399.0494059895836,275.21695144354607,1970.774653190874,2641.7962722251427,16897.549533876532,1793.7883729250266,1390.6110162874966,284.6257185065843,1727.915802713189,2508.8896757735665,16873.897253076993,1764.4502619289099,1390.6911602222867,290.276918063993,1843.7257081245716,2325.220748751835,16891.548372213,1777.1930920122052,1387.4769082485902,287.78925973574354,1923.468926239984,2598.0316138805424,16803.328394574706,1787.9709045387722,1393.4032018747064,273.9706046887651,1932.2335046815306,2375.637434912136,16969.790742219397,1778.233458050292,1387.098652296635,276.3735186210343,1999.9206492799963,2406.58326858876,16733.638351761834,1793.6911545308774,1359.169433477661,282.4966224197519,2025.5790840862815,2589.527768112783,16852.634009272046,1787.7615944245463,1365.301689823999,291.1468996946676
1940.0,2360.0,16760.0,1819.0,1405.0,322.0,2010.3509436390639,2389.246499850191,16774.048099107124,1814.1234630271235,1407.5259044902036,321.4839802444607,2029.2342178949564,2540.1123392727295,16884.845983124495,1816.317279878342,1388.568592627813,327.3098151828979,1932.871936427667,2528.6630354166255,16631.16497273648,1803.4845592848994,1403.8259195264159,327.73349391666846,1952.4171879527998,2333.002067355636,16672.163198497783,1838.6988748302977,1406.8019959947082,330.0180716926115,1931.460582300503,2377.37923249468,16787.91695448068,1824.5695025797434,1415.0141474662091,335.60454371328984,1889.8339383167831,2361.0216956641316,16659.221851720376,1830.5236435245238,1389.750330132649,331.9357667177989,2017.5422180672765,2295.0376268588175,16580.329173157297,1823.6711306360041,1389.9321679080142,314.4972310862768,1969.9229394131296,2373.157667569619,16742.964994457336,1815.4256047031522,1421.7123332081671,324.4923626074588,1928.761466083108,2392.725355399248,16886.716185041845,1797.889478434172,1403.6258244239007,327.6416353912807,2081.959488489246,2292.716629974324,16682.075626121277,1828.684449420919,1398.908785843052,320.0631675407321,1898.7326288984623,2464.3336615181943,16643.081225376314,1824.1854266587322,1400.3009227103687,314.29879201152306
1952.0,2404.0,16624.0,1767.0,1386.0,279.0,1885.7003635219498,2277.7059761404507,16697.460284097786,1777.2980461347893,1392.2090169517712,279.62356349252315,1979.3187386086954,2455.4838231218628,16846.33883060347,1756.4312223278062,1399.7335242182498,274.89414044999626,2082.508831281586,2423.5189275844314,16579.598935581984,1774.8858010749814,1387.8452683412331,269.2298524554173,1992.566372504952,2314.824052594143,16513.88550669173,1771.231136669721,1394.9297801850487,266.3949432317251,1857.663973916996,2590.3507034727854,16584.855739676215,1767.2845517718467,1372.2507127917174,276.196107002726,2018.829741928044,2355.95835220461,16686.928473698095,1781.136857480124,1388.226850021451,276.77295498084885,1927.5897054486222,2549.0293299183986,16769.327424606054,1764.5184247172147,1393.653014337395,295.03825754177365,1978.3958889631483,2209.5071422165124,16721.433077366168,1760.5503424453798,1379.6341489014885,272.3976120536068,2001.967941959312,2366.1870686466427,16742.10705614133,1772.6973918942863,1387.5212531535192,291.03374773353124,2049.6223568009805,2487.002698441776,16713.984912361448,1760.443427838953,1390.7665130657426,305.1210230016521,1831.6798256641832,2313.54020652418,16498.350995474702,1765.7874733877275,1397.7149978043226,271.42126380738995
2008.0,2336.0,16584.0,1727.0,1356.0,303.0,2012.5181247477278,2436.3279198198907,16567.368594994645,1725.961783481418,1373.06477836985,299.65419889888585,1930.2607916749464,2164.120675660918,16555.168371277974,1739.7112296516934,1357.19401908224,289.5327605942184,2093.3670212903057,2412.2608662440693,16263.01971061655,1718.9789893406648,1344.6708676272851,297.52174560096614,2146.4278509378873,2306.064427011561,16411.584191387272,1734.5916239325154,1344.6269097945242,303.6341401346895,2092.9648626483754,2307.2204706944135,16586.049904446096,1729.152986516111,1338.6749018252497,293.5527053568687,1799.5847689289017,2447.9697308494974,16615.43871466518,1729.896770515119,1346.6049614983792,320.418176088711,2008.5313282152401,2384.6208825728877,16571.441935356357,1723.4958073748999,1362.5593056048708,307.01590396677784,2072.013755352801,2266.0232898622257,16577.999016421443,1728.8551590762472,1363.2838140464364,290.4974567008094,2006.2215602568613,2234.3754532537423,16546.698028415216,1732.5589627889271,1362.9806661103412,295.03233805358434,1891.9799779390394,2208.4875549992644,16530.55085690971,1735.046814540013,1343.1713282928051,314.25180381520164,1962.0386687108091,2372.3919629220536,16658.77479323004,1729.4968809194716,1363.695220443923,302.5435683048978
1952.0,2332.0,16616.0,1795.0,1410.0,284.0,2077.3155776620188,2247.812843871481,16742.276676040827,1803.22336267415,1395.8593208689176,267.5989692164463,1983.6249663446151,2343.5714813642976,16471.303087849035,1787.8822110411297,1406.9261041998009,280.2035453814647,1952.2833633078953,2445.7959827221694,16561.235740591273,1799.3188959283443,1410.1668577795026,289.1140978083953,1897.8757754880055,2252.0014722108594,16399.52457896036,1791.493045196441,1421.386761645783,286.3443210037655,1948.8583564046687,2363.1062855399396,16601.50018877567,1807.2594337671615,1420.3353382680057,272.5775897803115,1891.8820972241836,2381.9874507666436,16603.701885658105,1769.302376069817,1410.976697039559,273.9494587467708,1870.8907093007856,2316.8295231848238,16759.117235057845,1790.3598546932728,1402.9352220927549,295.6945990372824,1878.546881879767,2359.063434993871,16581.522882021138,1777.1785946963316,1429.9785608434615,290.8947137609906,2036.5383379321943,2291.528169099852,16701.826079725313,1816.0821645296962,1423.6152285530634,285.5436185559332,2090.2569085985424,2262.485644225549,16673.2021598758,1808.7658039979917,1397.2123914845365,287.4872524752733,2051.28345862566,2321.5285393973154,16662.081381517262,1792.861815885148,1393.3242547267664,281.193328855878
1916.0,2580.0,16440.0,1561.0,1278.0,257.0,1981.025336474704,2602.8925244826523,16437.788121255708,1575.988455626324,1283.2126372070666,250.3106458974073,2045.0419533035129,2525.138064006106,16379.823094984904,1569.7220365884477,1271.3489914405616,270.32073094158324,2070.48272803925,2550.555104175712,16507.702769917054,1552.6746193197532,1284.9975305337514,250.66958889073885,1852.0243834571495,2416.721495488024,16479.760964360736,1547.6062072405953,1271.642071039114,276.8200653554569,1935.846893397414,2609.227148972326,16297.128315115768,1550.487326635773,1300.4879529233554,256.0159783691483,1871.0552569962679,2388.072180372862,16337.188409466586,1567.8903565926685,1280.9354061364797,252.55223190694213,1828.0203064902519,2374.2733733071577,16406.225894775886,1562.0112833803128,1273.0251783661015,256.7405287230667,2009.190444183918,2642.0431891037742,16269.781502238135,1570.1325619570705,1267.7860269740943,256.8815577971485,1922.983087304463,2592.6589467463664,16414.325940901585,1558.6960742775716,1282.2973154436825,257.18123041875793,1835.6456449628192,2581.5482758720464,16448.69742931089,1538.4245889234219,1261.9481361557177,255.63452781575518,1928.2619998255336,2517.391804401252,16324.436882153557,1557.1797904902587,1290.4112349225127,249.27927278628945
1940.0,2484.0,16664.0,1752.0,1405.0,288.0,1872.8290243549222,2621.545301074273,16636.659343534637,1751.6393705163132,1405.0070822535126,289.6539365308608,1881.2071881752584,2459.1709150312163,16666.867176360614,1767.7690829204714,1412.6520673431896,290.4111411667909,1979.2351904453494,2409.574509143187,16633.407253992846,1745.8675867005459,1399.780783522065,298.85504717895316,1908.4635582155915,2541.2952511881317,16497.578714711082,1763.9729200110135,1395.3434136477256,283.381614550259,1682.791014640692,2415.6896905522276,16532.96206450924,1742.9800279899296,1385.9208478143942,274.181997691511,1901.4674790413344,2397.380493604052,16617.1494219291,1746.5383490919921,1407.3680650846838,293.64881356684566,1889.2710891920765,2487.8902463235872,16715.024022174006,1743.4865194709114,1398.3606000174752,276.20016492767115,2025.841891294632,2527.0791616036463,16755.19014237215,1761.7085593502418,1402.9969424226583,301.707666145567,2056.1815836188034,2588.09365062699,16485.957768261138,1751.6679156359878,1393.4741295109122,282.70103894982356,1916.6823192950114,2319.354290944886,16424.59808075517,1752.0505930676995,1387.9250143026889,287.5915019472099,1933.7594362551756,2352.7987060194546,16692.922466088377,1759.6767588085538,1405.0879273851008,284.23723058097914
1936.0,2440.0,16568.0,1827.0,1403.0,269.0,2078.865460862695,2274.6816767841387,16676.313784537582,1834.6423011399402,1405.749250561036,261.263863648991,1986.544464166003,2484.021611120025,16625.73695035359,1822.271977927231,1409.2125882825837,264.2878145976678,2044.2739608995462,2488.5292581762783,16509.849936707764,1834.255622952906,1405.0343316192887,269.04656962585295,1755.0264159650942,2474.3203376836655,16492.45448869328,1815.2645016094066,1408.2394327463523,267.70141061115845,2200.01727010391,2498.3658829428177,16565.813698297432,1827.7835149975815,1407.2646891577376,257.09783537210967,1857.006738006674,2570.71298197656,16731.397361933443,1827.7497111466469,1420.2458082043427,273.7923230894101,2025.6781738916452,2404.936062035714,16527.52466851188,1839.262707240875,1398.0591051047913,262.7271455063917,1963.5354107853311,2411.669552168391,16644.00644452626,1840.7769884578813,1412.9642572657322,266.11082996185803,1989.9518298338712,2514.7779164423614,16649.6833983886,1834.4119409037962,1416.2697551593008,276.6512660455539,1995.3896206926838,2385.2298216037393,16596.12836236798,1824.3057367064098,1388.8486163554267,259.69029665574004,1884.9591841797737,2479.71239171001,16633.22896836286,1821.835806106083,1395.0072626985875,274.1595080023185
2048.0,2364.0,16484.0,1804.0,1421.0,319.0,2045.2513150760883,2332.35104225205,16661.219052823933,1806.735130986114,1423.573748892164,322.57157120066506,1957.4090551776305,2332.7301962243573,16477.188120041505,1790.2329090642684,1419.0086025606975,325.7921820201135,2009.4314021397395,2248.4677085100566,16466.762407208185,1820.5039152537508,1416.8465787115167,345.5138684196631,1952.955844950978,2420.4958939663707,16549.66878665479,1810.7321056564222,1408.7168416429818,317.9061681355221,2110.0764671896354,2311.4847678341907,16617.075020060696,1819.199053921411,1415.2433433156232,302.23945108719886,2070.0071215155745,2388.4566935077646,16606.151166488457,1790.973507721397,1412.4568397008761,334.4713984175989,2169.155040411369,2451.3729173774605,16533.236753511144,1788.9719764230308,1409.366839092038,335.0286426836067,2214.4597185542316,2302.5163405203334,16390.582495070787,1805.1993777310863,1428.2974308535272,321.9927579155936,2079.4689984622028,2472.521799745128,16466.963118560292,1800.473068426548,1435.7213380947833,313.2443229870123,2125.6364534459444,2229.850020465032,16546.552672331,1789.1159357609445,1422.3305268022032,307.1464019906133,2049.7191573172963,2496.4760781302803,16601.988948668422,1791.99306025872,1427.139641565957,301.8168553331293
1940.0,2360.0,16488.0,1787.0,1386.0,284.0,1773.3643448667217,2348.1838623876583,16419.833835153284,1777.9827913666434,1396.3755998795843,297.75575175727363,1925.1258262306167,2314.927873493696,16537.175250758606,1792.1122872920234,1376.1957691138782,278.3669488220899,1849.2414006868798,2312.5700839440915,16376.848090576239,1785.6777771292789,1379.5292230104387,268.94853274135534,2030.0398417251033,2243.3578782224195,16479.874561526718,1783.697692081409,1377.9832454676402,298.6722816470062,1926.1473278798856,2205.930463628177,16428.319379310615,1774.4423561611827,1400.4873765877694,280.06491903209377,1961.2282349498496,2325.0966665154924,16441.994032020808,1798.1194304224516,1379.9866406964766,276.21651472010825,1718.542434197861,2263.9130695944023,16474.028566927496,1793.339937015361,1388.3427021292762,288.3347968070606,1911.8694009280434,2254.625657335954,16357.963831991678,1776.304069216682,1392.995001313591,281.46069160696914,1989.2576068505957,2251.184388285763,16357.866852377794,1788.5326328141682,1368.8529166922367,293.78371397794047,2041.6843047083785,2341.8587072775535,16463.44982149189,1782.1550697947766,1387.0631520785803,286.2730698781109,1935.1358106343387,2379.5704420856714,16581.17726902948,1787.4874412076058,1373.0529889845736,286.2158293400855
2020.0,2360.0,16440.0,1998.0,1566.0,264.0,2091.75533432518,2226.6008578765573,16506.22286384476,2005.5619946214101,1556.4347892972396,261.48161684949645,2103.837910328045,2250.819079317113,16489.364861794922,1999.1259523616818,1566.594058509114,252.62327805723953,1932.618343743174,2160.8424626722026,16412.2934719677,1979.966115450098,1569.454716152943,261.51096085825503,1931.4381853440773,2264.8681467961164,16676.172614348874,1998.6438141928072,1554.0748840736703,256.6393562728451,1799.088920758364,2315.346914599052,16318.997438983399,2008.8703527905757,1550.8346651034376,269.6037004146399,1886.150553853309,2410.757375972502,16513.336944719693,1987.4666305221265,1570.5281182231652,242.86627360823425,2090.2233319850407,2324.1732627471224,16153.601028847277,1996.539258900823,1552.205681811623,270.2032189898217,1838.2680124317153,2498.85692527639,16491.59311017295,1998.629941612361,1571.7625636965763,250.81841007268403,2049.6788441939793,2296.065075300501,16450.855245229784,2011.8720556633468,1560.745677992726,259.42906897796723,1898.6793668365603,2414.8974881614586,16393.90437619628,1985.6381076538237,1569.8444182634405,278.38064016858016,2028.3566177942612,2236.7640928091737,16161.798823318675,2002.4447899594197,1565.4687602014774,258.73180622261236
1988.0,2376.0,16540.0,2332.0,1813.0,274.0,2190.6534439834354,2348.937329276344,16407.735764924786,2327.3101286308492,1807.95286962987,270.7966673681586,1983.587680573661,2442.885135588177,16375.09759178653,2334.63200236522,1810.5011446916305,269.658632536152,1987.8492018586596,2238.864893616613,16547.424847962957,2325.3400653421545,1798.6872397951936,279.3766443972608,1874.3335216073972,2283.3696954060056,16464.125314613273,2334.297732660432,1793.1946615241268,260.7898215384039,2053.2863386062245,2409.16151997019,16522.11468103399,2333.0228060791524,1816.274540987035,269.68063674841653,2100.9094307463224,2283.409996199421,16597.2907116966,2362.776092502751,1819.5745291245803,282.76066393629554,1974.6997128422588,2363.0641258559253,16524.366561611325,2339.004010191642,1809.0944539455832,280.09672501876315,2059.3626519451122,2150.142796280955,16489.69552315533,2343.1845971978896,1796.7159376617442,282.729070720677,1896.887053673037,2226.2606802843206,16555.366546010067,2326.9686669628254,1819.5071039660572,263.92303497531486,2013.102739304856,2399.2311614784267,16589.889729087045,2331.980882554712,1806.519323410983,269.6474449293047,1947.325548237274,2376.203391403834,16430.289077005556,2336.293259871251,1804.8679604745846,268.3113204252536
1860.0,2464.0,17012.0,1490.0,1209.0,299.0,1925.885480752096,2397.468752055504,16978.054838260166,1488.8854275783774,1209.3114926369294,299.98833204286467,1729.7584103230736,2420.3996189198206,16975.080561701638,1501.5118220367065,1206.7171636760386,304.5102961498298,1816.5678359295416,2394.7290217238724,17009.65803295599,1503.520393194986,1212.6888640644645,312.2039831010644,1757.2567596288493,2489.7586530547837,17095.968528369318,1488.263043222218,1195.0316117490556,301.71483768334906,1844.2512585094823,2557.792249597151,17190.30580212495,1496.2495075074407,1209.0791118643087,314.421283877773,1702.8527975167362,2697.461479100322,17091.117029383095,1495.937354732059,1222.9530927889343,304.4205461332853,1847.8216470825632,2384.484641035854,17138.348978629507,1495.319718778569,1213.698844254249,295.2873007256585,1742.503088085667,2399.6792550650885,17078.299237189116,1490.0550577306176,1196.2358083167321,306.04030830869374,1845.9550673623341,2483.154492688165,17000.77042194821,1482.4521129659615,1202.4278801700498,300.4811643205356,1761.3102486188743,2517.559304916205,17148.725348037155,1489.6965671648795,1225.6981341949802,297.12753464337027,1853.3336332353365,2661.011334136889,16799.172806358685,1482.005413686957,1209.845295705153,298.1350267944483
2112.0,2256.0,16288.0,1927.0,1504.0,298.0,2065.308948941303,2429.7125625016115,16426.413888646748,1916.9303280903775,1515.2455506054273,291.98928910508835,2162.1157129672324,2198.702264225987,16313.94279640594,1916.7285574587358,1532.7284102351869,296.51631229652884,2292.4269239491846,2251.5683326184176,16477.810602402802,1916.3478471131748,1524.477461819685,310.2475831065522,2003.1065328250727,2183.8674866219753,16396.38709315234,1917.2340585179227,1529.659352053864,292.4062812914612,2066.5588428108604,2258.3390464949584,16337.420530045574,1908.715589635353,1522.0923035290023,289.76243749026906,1920.0978722878403,2217.621547969783,16329.055672109469,1949.9941775860848,1487.5058765545261,300.22778791642304,2078.015163788856,2252.986798379683,16236.617759773419,1923.8291446276037,1491.8953594704433,311.25867046066406,2072.91801688103,2046.4973040860752,16264.242817994744,1924.399153189305,1498.2671465999683,295.48262793680146,2096.2286437849366,2312.3269398618286,16512.81960207443,1937.9056615877341,1515.2217927972695,284.0351725076465,2240.491194050798,2194.693708629001,16355.593921181422,1918.816042300985,1501.2779586218448,297.2067706879596,2182.1566696032496,2357.357111008409,16430.994255066147,1930.7269222754733,1486.3871554613856,282.20217093447576
1836.0,2492.0,16948.0,1150.0,949.0,270.0,1790.593708494722,2623.3461035129767,16911.939243279947,1140.716419488284,935.1075017685695,267.5996363105449,1746.6221088942646,2519.9323760095826,17045.06882146161,1150.049364869536,943.5849508760613,283.9202744888325,1712.915457448238,2456.404371386111,17106.6996404351,1150.0881789167036,945.9119737467956,277.74840107969356,1858.9000979831499,2479.3164655453406,16968.84988119664,1163.5259212529027,925.8024776523777,277.42421391989944,1812.7020027824542,2522.6076485560448,17108.130818617086,1158.286268187093,942.8014735747608,278.0302607616721,1732.2985310616416,2469.314271142349,17043.847957909344,1166.7576964831362,954.800608293323,286.5381439845253,1775.5331256722134,2336.6149547282653,16922.654526877657,1156.182727183712,950.5229629022235,282.65635997805225,1996.4664867204872,2505.432650679584,16717.86920140771,1157.7690677687897,951.291115256489,292.86335660495484,1831.4644706038684,2447.983172397099,17064.235793062242,1145.3520500888378,945.0597481871342,261.1141382852233,1895.049125889082,2459.127932206614,16764.96915812505,1126.2719561552806,940.9670374745257,289.28841291983036,1760.4548174083834,2607.908622036955,16912.070808466568,1155.3457121454821,945.7361848724613,280.5076919572741
2240.0,1940.0,15812.0,1691.0,1378.0,268.0,2225.3166482821694,2259.932163905553,15869.101459242815,1692.6499558145642,1384.0750167233466,281.3042216973065,2176.917349478325,1828.3708790773205,15882.720892398076,1704.684212430061,1365.5548900951308,257.08646996783364,2295.583925629176,2096.3678641192964,15971.18582899801,1694.9719407412626,1378.9618703047777,260.09784861679555,2201.9990211063036,1704.2003305021137,16018.616998523923,1699.820128800285,1367.9091327490319,266.9734484479364,2350.8717662295053,1860.350143648591,15677.308633262295,1700.6109528668642,1380.790873152025,251.49185803505125,2177.8912619250273,1835.440771856426,15767.399462929005,1695.4893525068685,1377.3382228659957,265.84418140628287,2318.2847130164596,1864.7331213875716,15694.28734640857,1693.550147354776,1385.8952862465844,272.5761050259388,2256.931666554757,2001.231905270817,16032.17819493113,1709.0821373821632,1385.997547675173,262.858585131132,2530.3832561774157,1971.3545248671585,15842.70544700142,1693.9012714834323,1372.6886451115058,280.5501458470195,2316.181733429122,1826.263670475193,15924.097334147213,1685.3085065484725,1393.7943301047067,264.075775909942,2295.515602706803,1878.3104750453326,15812.22619529659,1687.2442619007961,1399.0304894897724,263.67886269934263
1916.0,2460.0,16864.0,2306.0,1810.0,267.0,1849.346740907347,2322.495637809329,17091.6293758022,2311.3198974647257,1803.2977501964292,268.58958546681765,1924.2286008667986,2521.066908322883,16837.774907718907,2295.1776332876284,1810.993203780927,253.7888739662558,1996.290218721282,2547.396006775511,16869.32491588294,2309.810896809063,1804.106159172394,281.36739437948256,2014.5444929456269,2350.020108911053,16959.299225194016,2294.9230553792318,1805.7501085373779,280.5846916518326,1808.7007167984968,2721.089515664745,16837.48965169736,2297.4186519473265,1799.1747102128577,266.6983398520864,1967.6239984442761,2467.068316333521,16873.35050493655,2296.53658472585,1805.4158558428205,268.2492678212782,1913.542127892741,2540.1822529691362,16684.752508641905,2321.221763991849,1814.6734796601268,285.0329691025793,1825.067700051061,2438.342507330822,16821.824428993536,2336.7424736050843,1818.2764323895742,278.16518429607027,1992.5617872510727,2410.999578812528,16707.60523477804,2307.00690930118,1798.8069928747093,263.1679247791006,1891.3925651062902,2320.7382251611516,16785.25136059897,2308.186274973411,1794.422933650195,255.80617359299117,1755.3314858325448,2490.1739019109573,16925.33550924429,2296.1231767223862,1807.467829760523,264.1073248769421
1812.0,2568.0,16900.0,1581.0,1246.0,263.0,1842.0773654942159,2671.6916030211783,16896.7923167238,1583.7275283573003,1235.5598514374242,272.30468220032174,1844.7356833181518,2513.4155580400807,16988.99479065907,1582.0342078568162,1252.0468883509614,256.6288268062096,1899.3197730664963,2522.887698426128,16783.30053597531,1562.2468909133825,1256.3225066008126,267.09873824645354,1805.2899266725624,2770.2897876631914,16998.45130895432,1569.2614343314624,1243.5238006412387,254.26458305579294,1865.8052726187573,2551.632173100671,16841.70643512162,1571.854613319892,1252.7398167988688,275.22236159432174,1910.192362795424,2714.896090431802,16850.252853683578,1587.384393082979,1246.2487399393615,255.02151546863178,1855.1403052934004,2587.586404663257,16765.432965810694,1591.5773400176531,1247.4480572680084,257.1085856037916,1623.344324254279,2561.9315846209056,16967.66641956797,1591.2131036505066,1247.6498371205332,261.85329319458543,1914.7377462789996,2500.5532199275895,16844.560074063284,1591.9963277360541,1248.91315961234,255.53762970302594,1775.3237684305054,2641.56899712552,16920.643156779683,1592.6101749470483,1234.7081598828963,262.32000543659854,1888.86558494406,2529.481090360817,17004.82493129145,1580.2557655967616,1251.6744924993498,270.82997214749884
2100.0,2140.0,16020.0,1738.0,1389.0,280.0,2160.441222170935,2133.2546417073304,16259.001074332014,1719.6094801856761,1384.5446422959685,293.2379244770596,2208.133895135339,2199.481590829714,16071.436304479554,1734.4848890757523,1404.15395519362,291.96078493702794,2171.2325949573924,2070.831349885422,15938.824879358881,1738.979869882028,1387.787551223506,304.0159709056928,2286.336767567876,2305.5453177159484,15961.33380867835,1745.6782722528208,1394.2924074134678,285.75438297107155,2165.6538488790825,2148.689183452685,16096.808734694016,1765.8015206580785,1379.9405015074908,289.54478607946567,2011.7028674542537,2031.1818918465322,15863.833008462416,1738.2711341776958,1388.9009332437674,276.08422120733945,2066.395021444621,2274.0812199361158,16075.674254511818,1737.7407423405248,1400.7079565287129,271.5473396623165,2075.541882814303,2153.6542102095545,15921.850020243135,1728.4303361463417,1404.5026564723335,282.9297996392311,1959.4998182144127,1928.0943824755127,16018.3411174085,1749.7401529003207,1388.1638697526967,277.48819408411043,1976.6006003844032,2211.004870381809,16167.506105247445,1726.164489618588,1382.154597642196,269.6583162789546,2067.0985561567804,2197.85755921362,15910.862951402274,1727.4362822742964,1379.6113868827208,281.53697012247954
2052.0,2288.0,16224.0,3401.0,2578.0,251.0,2124.1656491468557,2395.0325468209726,16329.243930017128,3411.4006491876016,2578.177201580562,247.87123664563637,2059.599262754061,2412.2080191328546,16298.782210916454,3390.5550997370974,2583.2430819724864,247.63428818085868,2045.6139488950864,2301.2739434999335,16233.430859791273,3392.426821802641,2572.0527828066665,244.5487572118672,1978.3516300844326,2276.414531755223,16189.246025647044,3396.8157595119123,2584.336318172801,258.50583578632524,2006.8498207394616,2297.7049470253583,16172.421173148872,3400.065776452106,2567.7851740941073,264.42797499131575,2104.70560380648,2398.3105602524943,16304.437926671928,3389.3822687383554,2575.0904937910655,249.64171993439788,2025.489660389607,2201.874877149866,16340.741313928678,3397.079296319027,2566.158431429449,259.8494582544041,2156.148651763239,2490.118076870032,16266.03035081873,3395.378831407268,2561.926045119649,275.9716370793446,2009.7175120480958,2344.299463352936,16381.810694771744,3398.1280021850303,2589.969089956042,259.47165054755504,2150.912419548311,2270.0540243605487,16177.007020186325,3387.2112795106077,2601.6874744575493,266.6543955515352,2144.634271475463,2264.8203270807217,16250.919328199829,3409.7671514290873,2579.470927375249,244.53521442394464
1648.0,2856.0,17320.0,2964.0,2279.0,315.0,1722.6100504579952,2929.6111676936375,17251.27249902367,2969.075885174271,2276.865189226613,317.8149268194233,1642.2273486808756,2853.0300559263305,17273.24611479794,2959.9188936664464,2285.831477801327,326.3299542231642,1635.3284748807891,2847.506540719428,17435.446007563536,2960.900955748793,2274.3143497633746,317.9684348426698,1661.6542319586995,2942.8423565956027,17361.846505415597,2947.521028884842,2279.0970261230946,307.09958399829566,1416.0325482303656,2785.70715465323,17362.64240170862,2957.777858839608,2273.123663209454,313.97075439470905,1648.316524521062,2818.0139885241615,17382.52118607408,2954.117356188415,2268.092880050556,309.3691363241307,1441.9242141054046,2952.4111018767303,17400.820726708935,2967.062091582467,2289.5477412479336,312.3913770466223,1513.9591851224998,2673.116881385852,17363.212344816304,2989.323456447182,2272.4267077543504,318.87388146342033,1710.991397449885,2844.560368074839,17221.44235928101,2954.8158547346825,2303.151175496526,308.26984957061524,1804.6249322265178,2836.5534249790694,17263.411469384795,2961.603604137366,2283.864519797844,317.58074302830664,1561.737371375326,2826.2083254940017,17320.098231405635,2933.628832721517,2285.711574744281,305.0499165032317
1772.0,2572.0,16964.0,975.0,771.0,254.0,1849.4434612347532,2673.348731627444,17201.032848900137,982.1120790296544,761.8021423618708,264.073536345718,1789.4683246631942,2783.4205373844416,16942.70444956052,984.0724065516524,761.9453161502173,256.0973098877342,1781.0653883645653,2557.0517109836646,16979.337022399548,972.1195781170234,775.1715746779327,261.9972796242262,1710.0178659021053,2431.1533366504827,16861.70159512837,988.5242302602234,762.4996091571537,250.25444661196556,1806.682602019386,2661.511062745811,17059.370432798783,983.1947599812615,762.2585748718786,235.56807369920725,1539.6764663241843,2579.5681941508997,17118.15767748634,960.7472468412158,762.9094482751636,258.947125663586,1696.2857701763262,2500.6608020920803,16626.736364256307,986.2127111341302,786.6403711064231,248.78406372523887,1675.2972454668475,2534.6369093221642,16731.64608540792,968.4293256585712,767.9982717864096,244.6441523825895,1834.293414970882,2586.90212804096,17091.648671266186,963.95706115451,771.5184296405554,257.6895798366465,1752.6128750136952,2455.9680927907934,16921.083365024755,977.0166823178763,789.8359375316496,250.1540412538592,1775.302613458495,2510.4473738702377,16918.229388632284,987.0526402434587,757.8308222683817,250.58534152477253
2084.0,2376.0,16248.0,1521.0,1161.0,78.0,2068.492570200699,2291.520654636483,16231.528700836287,1528.8534243461877,1153.5961143064544,63.10484114029336,2196.449561861422,2454.2603357189537,16223.358865602762,1528.0635986263446,1155.6944903797043,49.43416104141878,2055.392667265636,2463.8480158288858,16129.207520426473,1521.0073316081994,1158.4646053597253,83.51834468923678,1973.7619599700033,2527.0322520413383,16270.369328102473,1520.624406870949,1182.6881434259572,65.63341133442161,2038.7125704613613,2313.4509720284286,16334.07647358586,1520.22152817406,1153.086799151142,95.04972067408524,2059.125717143716,2514.1563600911213,16272.49390339708,1522.9943175026094,1146.8246970712653,69.97738729300205,2056.386740558684,2419.224984552272,16293.456169009463,1524.0633121983365,1164.3409032565498,81.09109875265787,2184.9237575080215,2436.440669251223,16127.205265029292,1528.4743744347907,1157.929473253088,83.07323746715677,1881.5475637941863,2472.091890620977,16019.254672270225,1543.425289396129,1177.1152969393927,77.09065008988541,2261.1244555193953,2244.6290642976974,16217.811465080502,1503.5361693018963,1175.4266456881744,72.93427034061624,2327.499165688709,2331.079184241606,16217.796994021197,1527.8719011415333,1164.5169550313753,87.64291750046698
1896.0,2588.0,16540.0,2067.0,1620.0,318.0,2031.1240108870861,2549.0398775880203,16741.338292090542,2063.3669347738205,1631.0003703002826,311.2329441077333,1767.9521336997536,2597.571737212047,16600.128735284597,2068.1255604009903,1621.0164006415175,323.7309248702746,1858.4341164531204,2739.5243362073497,16655.423804234124,2077.8504895902624,1623.136729132371,318.69107267024583,1920.8714774211505,2381.3599795775053,16457.34314729618,2057.8057348320895,1617.4797481532485,316.8402736211865,1897.1018360142396,2594.8490264900074,16556.27289798992,2063.7138090401745,1635.5022670178234,313.68716500354157,1840.9699218883534,2721.8989593349006,16708.93651864727,2067.112843379113,1624.9850524971102,315.1289200857919,1828.962394543995,2425.7727296586936,16529.66313421955,2066.139174672176,1619.1741120459856,306.4061079510571,1868.9080305140997,2773.8899416659124,16435.55217900806,2060.049886278402,1600.709090129021,311.3439578005341,1770.749177847277,2545.4112775464505,16628.869952861925,2050.4130320705963,1621.8268728460812,331.84517558763145,1982.2313342135865,2443.853942966849,16620.352867001162,2069.232515014373,1656.1000354253854,324.4820352671888,1855.6498382391899,2681.0288918780166,16528.85336361872,2068.384672139884,1621.7027297069906,314.61414933530654
1696.0,2644.0,17092.0,1255.0,1010.0,279.0,1618.7759393546858,2694.9566137257416,17106.212587561917,1224.7344543612878,996.5797474096972,282.68853545682845,1806.8072365661367,2288.788219728789,17056.715799621994,1258.7302345843962,1000.6418375605807,260.4237778212263,1653.3654571598925,2624.335547121304,16991.408479831818,1246.9146112188064,1008.5495564227642,270.01947304156266,1716.1065747726623,2624.2312018177613,17066.022152956666,1257.7777323158625,1020.4619797444091,283.48257221661316,1550.8235925079232,2720.167888731106,16936.179098540593,1262.5400353540506,1017.4540781571898,276.557601756532,1790.2828312467107,2814.7661401972773,17157.405822988083,1243.8253692858243,1007.5144946009348,284.3925839985131,1748.8789687295869,2767.1951910801936,17231.499882222,1246.1628349956545,1010.0994741200467,290.3650989052817,1789.6743339197783,2691.157692375422,17205.64278781775,1238.8561712279466,1001.6760948850751,278.56159133824264,1487.060199747818,2666.6570780503575,17203.93718839584,1268.107281969121,1003.8463981418538,278.3951138751334,1867.5487372910443,2638.0437235005666,17252.434032743997,1261.4393226842917,1022.2198037250076,267.36040467755686,1772.4302157504264,2505.00959301201,17247.06925757349,1249.0072501267641,999.6359684073443,277.9508433836664
1876.0,2476.0,16604.0,756.0,640.0,284.0,1747.3798851613926,2378.5496222891225,16613.464827590615,760.9818467770904,645.2724416073274,282.2387043465045,1844.2980154350053,2480.0136652545216,16652.373481763836,734.0158775830926,653.6116673187302,298.79702632970384,2030.039797391724,2431.4741434867483,16438.884183264996,750.5918775592423,659.2606307431221,307.0011596586813,1857.8558061542867,2534.368476283554,16630.26485877298,758.3996166734814,639.1820668098248,279.5027135081524,1853.8237673215322,2525.795500064026,16590.164891476194,748.8410994173076,649.2714855313126,287.48928673317323,1912.073828219388,2554.3263426549925,16478.583825962753,742.4097053747404,649.1791973074761,292.4336666687042,2014.484797430579,2447.288369787377,16452.811497057923,745.1929597314373,630.1427653566819,301.7364738136075,1765.8804231178142,2380.732118398087,16699.120371965393,784.8651711517617,643.094347881669,266.17465047471967,1839.448558311514,2435.1237391953587,16532.826119640533,767.5386834192215,641.657870771521,284.8151321874153,1856.3929809947695,2521.116727594914,16560.855546542512,750.9124247714219,622.6195849860608,290.4439819371851,1955.4576115225177,2414.4944404137864,16486.155028076315,760.3696718222448,647.1105864655829,279.14423991404976
2152.0,2248.0,16220.0,1675.0,1323.0,284.0,1985.3529586243105,2295.8362112636773,16122.898411680031,1677.963892772106,1331.1953567827427,275.9708341217096,2203.390416506419,2173.4825529396508,15970.17005494231,1677.9249929266946,1322.7927275673596,284.17807419272555,2094.30192037255,2320.215991030177,16315.25885792496,1671.4518585442597,1331.2976826925174,280.0326604976074,2110.5324725993746,2310.3515081986793,16167.537200202747,1686.175992810364,1318.3224095294759,268.62565832106907,2128.6778599605195,2143.1211025759253,16218.764176434608,1668.9602377564452,1308.5823504405425,272.4132563579477,2273.5536599522247,2106.8503904956324,16314.927719202824,1673.5761924378485,1325.251430762339,305.15930275504167,2232.882396369359,2225.6297384865607,16135.704239818777,1672.244754743444,1317.7565456602265,273.76959093686,1965.4648987480857,2211.160978278469,16249.338853938501,1685.6058296796111,1322.8997326841522,276.82408919773513,2461.458055364297,2285.187167128159,16272.445906883875,1681.443508709226,1350.4925670124921,287.86031743314385,2388.5657783826787,2266.174986995645,16196.204082424125,1652.4691723389737,1318.239662434442,275.2507681381225,2192.219415086495,2256.15922167311,16220.017356818345,1664.9164141825227,1333.289058367245,287.6560068602884
1828.0,2432.0,16720.0,2399.0,1866.0,310.0,1804.171190266547,2526.392319730379,16653.309769631574,2389.490436629975,1868.6195506520041,306.71195167624103,1918.8140421517248,2391.2786484807652,16668.13245700298,2414.5489472648474,1859.8010923430274,305.1150203374737,1893.0138034453446,2422.2072584409784,16637.362747892756,2403.8952338508693,1886.2800673283368,317.0097747838829,1925.5201493159761,2383.6197913094184,16524.298915924068,2386.4332048703454,1862.6439136747294,321.12912440636495,1884.6099427938407,2632.8998299416685,16649.96643146849,2401.6045315667666,1866.2128657263647,321.23154887355963,1930.0284190705338,2589.3919893281804,16658.468164985436,2374.633090100977,1839.799574036825,304.4338784643754,1866.0581944876667,2469.153376532923,16874.029680028685,2400.475331157934,1875.4580789838838,311.0783007693599,1784.9493665767675,2551.396330328741,16632.53923450023,2414.030902865914,1865.9019652620843,305.1499242814721,1799.3372531487528,2370.5953794407305,16566.289600092638,2397.2483960289173,1856.3062158420266,318.1187780526758,1778.109477583929,2458.6532866085595,16673.94955728833,2397.9606926524907,1871.7252841824711,314.9877863929988,1748.7078891982817,2564.75029230397,16585.961708787407,2402.9107170426546,1866.421656428178,309.0592577188031
1808.0,2540.0,16804.0,1634.0,1278.0,270.0,2088.8114700059004,2690.828837368255,17024.807076285724,1642.9918861249816,1283.2617651027056,268.6535430477766,1694.95291543483,2622.782868622871,16762.18411892103,1610.451976023458,1285.082830758679,270.38320756903954,1754.8348905052944,2493.5088393867322,16722.47055437863,1629.8896366346805,1282.4133336611806,266.6468280887577,1979.0801172089955,2400.2245674271026,16817.563889217166,1645.2527967642911,1285.6179764803694,267.89337940575643,1754.134024310381,2460.7281129167595,16695.83872526125,1642.2334538486905,1280.0866498974426,275.0405900867958,1818.9045178084007,2559.302503607744,16724.35708096045,1635.3006199578879,1255.1004586950344,279.3104617839199,1903.2358961580935,2598.6043334261726,16731.023853643394,1660.7352367031156,1297.8289087915102,275.1163601230528,1734.5413076177892,2471.9162313015854,16640.637646439085,1631.1326396471245,1275.9544052942706,265.34310664349056,1608.5612242692182,2640.319828085323,16805.13264417866,1643.0524201801406,1289.791474967495,264.44849941932574,1630.8880596219904,2462.2848403232783,16812.68603686938,1646.6916090478624,1278.4173055164063,264.8075014633309,1808.3223794921828,2491.37638809163,16734.884861265473,1650.1485970103213,1291.1662409465878,279.5427930805649
1956.0,2416.0,16444.0,1696.0,1342.0,286.0,1795.4286610527554,2472.956361791281,16488.694339755642,1694.9418854557455,1339.3952670022811,295.90626121073194,1892.2440096858018,2310.2811011514746,16338.084212972763,1683.8967632475221,1348.6369420473463,283.78005666176807,1937.9988593065261,2380.67207728841,16428.817252387395,1689.5887581647742,1336.460471559847,284.61542584712134,1988.3652317081187,2502.5988335096913,16451.134403945347,1676.952677674468,1354.5049854507506,299.9811837760549,1937.966784322805,2532.620041153445,16407.77190861407,1698.0892131078274,1349.4716748065885,263.35338576034104,1957.5962575475364,2391.802617528939,16384.776143416922,1697.6920663624815,1342.5730319478648,296.1249303481454,2065.1464013147033,2400.565411107379,16402.066527044808,1699.8743399312855,1339.1477187140067,301.7616016431562,1921.1312276549158,2459.1946351017295,16367.741286616993,1706.7282396736175,1355.871670439456,282.5979352445438,1910.063115362627,2396.993444761934,16483.969448415162,1699.2892306085541,1330.6063761020034,288.44873414846717,2164.9166333291378,2279.4142817756256,16341.943832732657,1702.9444250108818,1358.006097698531,284.8057167409174,1722.1899065306588,2416.9729578903844,16381.696017072989,1705.445887903136,1356.1083077313988,271.40950116593365
1852.0,2432.0,16652.0,1784.0,1396.0,301.0,1798.5538856454064,2405.02026245303,16645.373260080763,1775.8125542085136,1401.3068975666065,297.5873095628923,1707.9237759819393,2257.6733150796845,16657.737792456817,1776.6212431237132,1382.1030515431908,311.8895516983215,2001.2226328208706,2484.5447721598266,16706.416218898994,1776.3266744773418,1401.1556691061783,277.88420596625105,1773.4724090562338,2366.408533906233,16610.36340671356,1795.4274650960945,1401.4389504683907,302.2496630714637,1899.5809941912962,2536.89715227822,16484.161873174024,1786.6060126892196,1401.1269959726728,290.3944271324119,1596.8779557621824,2372.4583222773435,16544.501462126245,1795.1359422902867,1393.737862224365,298.2742845254018,1897.705918974716,2234.83761526362,16765.174273061206,1791.720683162462,1395.0192716485553,292.6695989365675,1844.5689332419417,2372.4337182463187,16607.494047439603,1810.236641105129,1404.0060555830332,294.93457722728965,1733.9928606738945,2424.9973413204307,16669.463172190306,1764.8350940907726,1403.1831331120184,298.75193661515783,1698.4224334274295,2522.807112863104,16757.36074496148,1784.8601412215655,1389.5938820791694,313.0723775445987,1952.5153101619367,2504.604867657588,16717.708765106167,1769.2903463094876,1404.0724542011558,319.36427608923213
