IMU1_AccX,IMU1_AccY,IMU1_AccZ,IMU1_GyroX,IMU1_GyroY,IMU1_GyroZ,IMU2_AccX,IMU2_AccY,IMU2_AccZ,IMU2_GyroX,IMU2_GyroY,IMU2_GyroZ,IMU3_AccX,IMU3_AccY,IMU3_AccZ,IMU3_GyroX,IMU3_GyroY,IMU3_GyroZ,IMU4_AccX,IMU4_AccY,IMU4_AccZ,IMU4_GyroX,IMU4_GyroY,IMU4_GyroZ,IMU5_AccX,IMU5_AccY,IMU5_AccZ,IMU5_GyroX,IMU5_GyroY,IMU5_GyroZ,IMU6_AccX,IMU6_AccY,IMU6_AccZ,IMU6_GyroX,IMU6_GyroY,IMU6_GyroZ,IMU7_AccX,IMU7_AccY,IMU7_AccZ,IMU7_GyroX,IMU7_GyroY,IMU7_GyroZ,IMU8_AccX,IMU8_AccY,IMU8_AccZ,IMU8_GyroX,IMU8_GyroY,IMU8_GyroZ,IMU9_AccX,IMU9_AccY,IMU9_AccZ,IMU9_GyroX,IMU9_GyroY,IMU9_GyroZ,IMU10_AccX,IMU10_AccY,IMU10_AccZ,IMU10_GyroX,IMU10_GyroY,IMU10_GyroZ,IMU11_AccX,IMU11_AccY,IMU11_AccZ,IMU11_GyroX,IMU11_GyroY,IMU11_GyroZ,IMU12_AccX,IMU12_AccY,IMU12_AccZ,IMU12_GyroX,IMU12_GyroY,IMU12_GyroZ
-2908.0,2636.0,16608.0,1810.0,1174.0,330.0,-3080.4791733206935,2500.9419119502772,16500.917843960382,1824.1170475851582,1184.8534448870805,353.324805013109,-3036.8053167122503,2701.321622168225,16684.57937339686,1815.617323348988,1166.3740165190989,334.89130007182575,-2908.36337312115,2675.491303836977,16640.41126052916,1826.9719310233027,1183.2467997397578,325.9569878471274,-2939.9289533434626,2730.529877550498,16800.931806539993,1791.4234786561647,1185.5874505712197,341.2828141728146,-2979.889365672797,2677.271421142141,16609.991195714952,1798.0632130675524,1184.117488451603,330.44636250968165,-2857.1395130699075,2554.3769802863617,16594.21170078686,1802.1949587869206,1154.9235462034405,324.7552818477336,-2979.8573966548947,2468.012423159904,16554.915964880176,1795.0419415764802,1168.4680346719185,313.9547414662348,-2889.1705029232944,2776.7014075113516,16582.246747377354,1806.6417466716425,1185.4938682258328,339.00591871160987,-2797.0591579544102,2686.6640064219378,16718.08121577959,1790.3874971277091,1165.213691247398,325.2638074142593,-3029.88096774527,2708.3387651661587,16601.673648040436,1811.5691742210001,1180.6197266939976,337.129305728995,-2733.8385552294044,2733.05217021047,16522.80878922106,1813.6098429053634,1184.5749311100021,325.6309455709268
-2796.0,2656.0,16580.0,1792.0,1273.0,346.0,-2882.937798398035,2668.0759588940086,16528.06581458197,1790.1021222016584,1277.1392204021213,347.1998717448422,-2922.6146492451785,2674.642048698978,16449.263752064842,1778.976029598048,1271.708979987188,375.42180969175485,-2891.147427147925,2488.5992252568294,16538.442147937876,1800.2892708494298,1274.739414831385,352.12980629014686,-2700.4843308310233,2663.0293208943203,16571.499027176364,1782.8985232026964,1276.890539425047,350.573128481509,-3027.7374228832923,2702.797754453561,16589.834719799703,1796.5386602477224,1258.8855757260023,345.28529220086443,-2779.039921677315,2608.0696667443035,16514.976578552792,1794.1044645402058,1270.0477052851068,338.5129749201425,-2687.160349116721,2680.0591907604044,16604.76987866766,1775.2590354425517,1278.3453579835907,348.30211964439155,-2734.984264767188,2787.234233470573,16742.015719462706,1782.4531834856946,1269.2737741897524,324.42664384520214,-2854.358340827697,2548.204409901477,16560.082694596338,1771.4311406217505,1277.1695453220063,350.901718035225,-2768.703557323898,2512.956728324916,16706.03054936784,1801.6365106743522,1274.1773429414889,333.7960945571226,-2741.355695342875,2758.5817177248387,16697.15381933754,1789.214012489449,1267.626223414532,351.4614875462909
-2700.0,2584.0,16564.0,1643.0,1381.0,416.0,-2792.9767730290873,2454.0846226827043,16802.710805257193,1646.3744237877436,1411.5328871878767,433.5612570140103,-2720.458717874883,2464.847627414429,16472.25135694529,1658.3469323670336,1388.3194276582376,409.33314292013154,-2809.4337721541615,2601.574795915991,16721.861716941225,1651.997757606831,1395.3517749481932,424.3688075608738,-2700.425173243397,2563.3346760457243,16696.541203470704,1643.3072701576496,1363.5871396793013,417.2122088097406,-2631.04459934927,2709.7689025421937,16631.187406789486,1636.2709304367502,1382.0080888234702,414.2352358518216,-2797.4617131151185,2486.576977703615,16409.69294337732,1629.9275223590485,1375.7079934188407,412.9522319223737,-2695.073407322677,2538.1988975466916,16493.335935667754,1625.912939913676,1377.2897405798633,403.35733704066905,-2659.607483980913,2535.1872370555398,16405.921107885464,1646.871950960195,1392.7027763274714,410.6802367005163,-2767.9769937298556,2586.9860557203624,16474.15040946274,1641.433085873781,1371.0670371099786,405.9975664685227,-2573.2717448392573,2548.504928858901,16693.208333611175,1636.9507303953096,1369.7649296423451,407.6373095837868,-2881.144212223948,2621.177142297381,16644.685547088495,1643.7851511318402,1366.9999179608271,424.4127547195571
-3072.0,3336.0,16596.0,1512.0,1517.0,1129.0,-3026.111538808076,3240.162702747597,16585.389201565853,1513.9996819736866,1522.667481230903,1124.178610904712,-2880.291104430854,3286.7776746771233,16682.22201492492,1507.9631610592678,1533.1620632543375,1128.282428364727,-3020.9476380016845,3331.485399201724,16453.21508379657,1498.719170382368,1515.5756722594886,1119.4698622708481,-3171.661769563013,3338.8226402646733,16504.22571653986,1512.5819435278204,1520.1194113834804,1146.1883011486805,-3165.089282815966,3377.8381218946165,16461.787963343748,1514.5460619848377,1529.065989017931,1138.7654264845671,-2966.8835066411616,3235.9984421568197,16563.554355656343,1517.3345705606764,1522.9418569299112,1127.1919016398363,-2951.7547341087634,3325.4199356853114,16564.565491542817,1498.1143628989084,1515.732549387304,1123.6847053378397,-3095.957141461535,3170.269663895533,16708.715679574092,1508.8837278268966,1517.4792857118055,1119.5288718833121,-3175.2454627603593,3456.560139674005,16727.393000105996,1511.1335306488418,1526.200445241493,1125.294573006893,-3114.573599010675,3428.2814502104125,16453.075540224425,1509.5897397679303,1511.9815102496411,1143.3778381088357,-3184.947385981795,3419.2097242471004,16526.003261823986,1522.0739931936992,1524.0053373760927,1128.9030755543681
-2952.0,2752.0,16544.0,1165.0,1697.0,1687.0,-2958.7166569389365,2600.369200253503,16616.75933832585,1153.3587215869711,1702.1728921776632,1686.6088686639873,-2708.496716226516,2736.73527819359,16406.968376939232,1162.895937542178,1696.4879285903028,1683.3082329121564,-2928.321279902521,2835.992409400193,16507.097231541324,1164.2169235932286,1693.2559931022079,1684.9021595054292,-2773.0365567884783,2713.999313578185,16683.75637922103,1163.6776595104784,1693.3031409111184,1684.765392043564,-2819.6955591702417,2775.7606474748422,16656.664338139235,1175.801203145295,1716.5834186022953,1679.7230617744995,-2943.116018439376,2904.043754108208,16623.28005122669,1170.1548702274172,1701.9004184506352,1694.8933150582168,-2774.870368215654,2954.341050667084,16524.14757092055,1155.252960723117,1701.6247937525839,1683.3782000958013,-2997.917389190247,2880.090120552778,16560.28746340867,1158.7716720366982,1682.127153231448,1692.6754154810546,-2911.577932491443,2822.2637273369123,16554.40115092692,1151.26090086498,1694.3936743642066,1682.1565516959436,-2971.41390387545,2668.6003671268486,16538.256555662418,1176.2175071656136,1684.269442280251,1665.1166366271975,-2992.56563446697,2711.0880232989434,16552.117389974825,1155.8824126066163,1697.3478184450544,1689.1894291479898
-2752.0,2756.0,16628.0,1365.0,1330.0,2300.0,-2690.9337608375336,2636.6333164128646,16568.313828370283,1369.0512952156598,1332.9136332934845,2300.749733646369,-2797.4331216151,2758.1783418642335,16602.348824596807,1381.0343066137968,1342.8379370831024,2302.7621938840384,-2787.83479025118,2768.121214490534,16532.481350656217,1370.0064259872104,1326.685594123718,2310.260464598619,-2682.088985238915,2760.7718535607332,16610.255836239092,1372.2311815556486,1331.1272842416347,2298.387288557514,-2779.2465303333315,2840.6709273752926,16498.862166403724,1350.6610972879573,1332.3618758637128,2303.7519459463065,-2708.53336724908,2831.097298340234,16942.022819377646,1355.7570083221437,1329.7165086512039,2309.472202941522,-2760.024021769347,2755.3272752457315,16684.490069390846,1357.9226844098273,1337.1616305896193,2303.6876302567744,-2694.472508197613,2712.69993560982,16528.194777752593,1373.0733234080574,1302.0651378891685,2297.2762270678572,-2701.7910248229105,2728.3420252724777,16680.421083575442,1381.7437990038054,1344.5962932046814,2317.2558706302884,-2796.0615032336136,2717.5059280635464,16768.188947414103,1361.4479782356384,1333.8869570303432,2305.9721392133733,-2805.1561893542894,2853.981954938283,16649.873693031397,1376.6492932415401,1321.6247983610435,2299.5635968798038
-2896.0,2632.0,16924.0,1518.0,228.0,1146.0,-2914.6512588093356,2577.551753995648,16905.868090851418,1512.3600832389027,241.7242921219236,1155.1094163795617,-3030.9502708172013,2704.61952614384,16860.507113965712,1520.960237844718,227.10117372402394,1137.6011362431736,-2804.819739144529,2585.536818206322,17088.183698835794,1527.9885486368364,208.01493267289118,1148.8178384304179,-3027.64440572464,2566.381220376832,17000.28465234701,1509.7432386587273,223.4013485681098,1151.942845075619,-2827.8019749079244,2621.3463476330985,16912.03995914667,1518.3151020962073,217.0913640412416,1147.7457645306172,-2998.0091711988302,2737.2045681386467,16836.17526110668,1513.408236687446,225.67786826565984,1162.047005722231,-2991.7964871040167,2654.214154305897,16829.069836750128,1530.8397251451668,236.34352416555043,1139.4452596672845,-2735.1179764294384,2643.037796823537,16912.242171920465,1523.7757372095975,204.33227778569994,1145.4815738184197,-2942.973728544283,2584.6942172664153,16909.90516165524,1507.1877310553236,229.56933335806065,1135.7916911963787,-2854.466933111436,2781.1546947089546,16958.84263335331,1509.3865447410658,223.8226945915883,1148.6452236379203,-2841.3243994990394,2750.9612853468843,16917.691619173915,1521.73046364023,228.3432803873712,1133.3238008259161
-2724.0,2628.0,16524.0,1727.0,81.0,-163.0,-2741.3367680504407,2651.5831307270555,16448.533704234706,1715.5014615604557,91.06055426575242,-166.87880281050246,-2703.1337755386135,2778.3792867487564,16531.07306351755,1723.27205156624,75.64313832059874,-170.6017085191082,-2747.009706043106,2589.934547628839,16484.348427752277,1736.5850029319222,100.2954791949775,-181.05299802745017,-2930.5147080928673,2625.496536089801,16489.665584136306,1723.3488016414462,92.52906445924381,-169.17276746368967,-2761.474779366654,2603.115524658747,16660.32259901957,1723.6059037358298,67.2181475650621,-178.71572683121872,-2760.300414997242,2419.264950918684,16403.516096495103,1714.1141681731538,80.02534319390672,-167.09705964021592,-2653.1247477541565,2575.906535363253,16603.303311406857,1746.0911105663256,69.19623534464878,-182.56694658547337,-2706.5391790971203,2595.366026215689,16466.056994266513,1732.0923819467023,72.18662962802733,-183.74013881656748,-2758.5138664612227,2644.875962392648,16482.87374427458,1736.5920239244415,92.72594663026248,-160.72277067371388,-2765.7013710856254,2462.2659947217617,16616.58697640014,1734.145295603156,76.38117352794255,-159.5460720502986,-2700.71353645322,2656.593694025379,16511.768191341296,1720.1481404462809,89.28175617995309,-173.23415545247042
-2960.0,2892.0,16976.0,1727.0,-675.0,-1778.0,-3221.8325854801074,2757.0968403293236,16872.567120951448,1733.3929860367402,-652.5747541378444,-1762.994657895813,-2965.5248324281933,2861.3788964782393,16888.476310057373,1719.2144568541216,-665.6494117439272,-1775.9049954736984,-2839.500873307983,2812.415132966748,17133.514508178207,1716.3098883816174,-679.9312187280292,-1769.457944069158,-2926.544462274604,2915.0506673572595,16944.988609044456,1721.026898659388,-682.8825138546553,-1776.3838278379571,-3012.150768001249,2748.915629779382,17180.318188737794,1723.9888696300839,-668.1875684676588,-1780.532718243303,-3060.2959936205375,3031.516877794224,17011.678514134976,1739.7302306111746,-673.9350321931622,-1764.2959297282757,-2670.229868520926,2887.7430164208513,16961.132906193943,1708.0202741571673,-683.0934956752084,-1788.468912759947,-3004.184773200803,2985.4321080055765,16912.475486769745,1728.3881417543885,-663.7770596458572,-1780.3752339943944,-2976.3714543645165,3051.378104657214,17099.16017539245,1712.7411824406895,-663.3616485534855,-1789.393734368009,-2763.046117652123,2951.1516914727267,16910.45114204713,1746.8743667314734,-671.7949246570773,-1799.8281757890743,-2927.7197525841807,2983.869573609993,16757.42121957535,1734.0435085767358,-665.0526123355216,-1786.7272998004134
-2500.0,3568.0,17504.0,2492.0,-2821.0,-4646.0,-2356.543876162961,3495.521524539317,17495.915820386424,2491.0922918310675,-2816.9949492004357,-4663.376346538207,-2527.4818423709976,3612.5271053733777,17517.180457278326,2497.474857793293,-2822.2740393922627,-4641.935755264905,-2623.6546102436005,3590.0426101859853,17510.38470904663,2503.423468453616,-2821.5622509128366,-4643.153730170124,-2288.072807755749,3656.2022331777453,17476.06608468604,2478.357320712685,-2804.86233764176,-4644.5550637118,-2329.6871987790614,3529.358877136413,17614.27589379534,2501.095867760385,-2820.111581869807,-4636.445560698273,-2450.3000425211308,3585.2751180430864,17530.988501195447,2475.6046061485886,-2825.3920928454086,-4645.6527496928275,-2594.727552425806,3729.589314583945,17362.855185107856,2492.1221205216307,-2812.769348313843,-4647.038271270078,-2218.3093438773667,3649.692296137364,17658.751716612966,2497.967818243597,-2829.165082767382,-4642.278702409913,-2553.551919364756,3583.755709612041,17529.543424442018,2499.5953748655415,-2830.2850334022373,-4663.155251460892,-2376.9839228844057,3584.439658370333,17532.801256294864,2492.9541245250007,-2814.122655599218,-4640.75729417059,-2437.7499033967933,3522.546787309913,17430.58115122182,2492.857384749449,-2827.034201908881,-4648.4266762112
-2764.0,2692.0,17464.0,2718.0,-3105.0,-7484.0,-2786.1550158668256,2854.6057417734733,17531.237166539184,2704.2193966800587,-3112.675209301637,-7488.2745702732955,-2913.1797499565805,2785.7054348156935,17463.39431451411,2722.100690467953,-3102.9952855297634,-7483.055443375567,-2748.067824427742,2782.2688234532434,17448.871359767927,2718.0660829068797,-3098.608108443902,-7471.921121936007,-2797.1414988958168,2588.627632075879,17613.807883565598,2718.6859431614325,-3116.9137851972764,-7467.503756278758,-2998.43764154155,2529.434770894621,17617.440286278306,2729.53413767117,-3111.6612243712448,-7491.4378575897135,-2914.751250567006,2811.291401594155,17554.117281771687,2712.6787333450275,-3095.4007317167902,-7475.518172678074,-2649.0157832686155,2669.786112423174,17537.394461985226,2704.1770705418894,-3107.9678593930153,-7469.310671150838,-2789.722482654742,2578.285567883547,17444.603683769463,2703.1543353484317,-3129.5482445848593,-7475.682074536958,-2782.3638372231144,2783.637454789417,17525.735062814925,2703.486306218062,-3096.604344398988,-7489.6560044824955,-2730.2327823908713,2772.6428770019993,17605.248949571316,2733.4420295043537,-3115.6695892727153,-7490.319464020623,-2722.3775132626038,2707.879550579326,17487.47120162278,2733.390418575484,-3098.552809993214,-7487.042439414921
-716.0,3744.0,15040.0,3437.0,-760.0,-6655.0,-839.0381187221047,3700.8380879114065,15136.826597103382,3436.916747779952,-756.2274522861275,-6655.425114472407,-631.6235738318255,3710.8855841325867,15093.168506345366,3428.3561065982544,-754.8835290985064,-6652.059199550454,-717.8748914043551,3802.7392244083826,15020.82407154031,3425.427271441832,-755.5718218776782,-6646.784685720523,-639.3053613453245,3906.8133454793333,15056.722279621956,3430.616164484012,-763.1180531924466,-6655.065083011825,-661.2414532996396,3798.6080267823386,14917.146850102314,3442.4564316203237,-757.7022370529667,-6643.385135864546,-821.7140150447616,3788.169858658648,15071.0803476786,3426.905967909032,-761.1654739551778,-6661.57923149713,-794.4070047027354,3695.377640095755,15020.722686361029,3458.155810383488,-759.28261667664,-6664.788987154016,-710.0059722452481,3628.5058404090837,14845.880923974926,3434.567195532452,-770.4504922336547,-6651.108903731209,-726.9061647355906,3782.3684932248375,15180.140079391987,3436.1259045893844,-764.4871082777538,-6626.844668491648,-651.9078843030808,3821.8662942301467,15134.045290132774,3426.540331068307,-763.3128191115306,-6657.1487734102775,-587.8810582229482,3904.645663130458,15083.90305751616,3437.3219654069685,-758.6462836277954,-6660.164661182285
-1532.0,184.0,16988.0,1933.0,3846.0,517.0,-1381.286347185058,367.40602938621385,16796.488579732766,1926.7473000483055,3850.212002800039,528.0681218349793,-1432.7342049027452,110.92629983557573,17044.967919439652,1943.0322246898318,3847.182251815121,513.0195241048025,-1442.7274984195792,275.8559057348358,16879.197059377457,1938.3777073886313,3841.3074389474955,515.8385359423727,-1495.2159914513156,130.8008990759514,16923.064548019818,1940.3000894396007,3834.924819474834,511.0138199943334,-1497.9157241433509,292.6715817565795,16991.73004025853,1899.749730964572,3831.6850808829445,516.5770732640009,-1374.7192874387028,232.75067079584187,16914.904111112293,1923.102237861957,3839.6989553717763,520.0581481128287,-1576.7595784217626,113.21207242977925,17119.833248298462,1927.0072440402384,3834.7974966459897,528.2014940745638,-1570.5289084855983,184.9906753730602,17103.693515172225,1934.1619902596813,3865.8397709017536,517.7441702935113,-1407.7465690638314,153.37414966959884,17085.939061766072,1924.9815090797229,3839.268210189313,508.28161617201386,-1629.7550318632273,164.42353003114442,17092.43023469663,1928.308784378604,3862.343687982221,512.1196996180325,-1625.8475590408575,453.29840590800745,16886.00579879351,1932.4128438389935,3839.6494044078945,503.54375735625376
-2292.0,3444.0,17840.0,465.0,4218.0,4281.0,-2197.9153190238435,3530.9889273085064,17887.38377253162,453.4899667272039,4215.457935576606,4293.182592578824,-2063.7544807767804,3353.5043720260096,17882.68185567778,464.99711563333295,4212.198062324864,4281.2661824302595,-2348.187119352652,3413.86199153484,17860.57596904466,468.55947620859604,4232.772537843362,4282.218000445229,-2258.318315382252,3431.63228574526,17902.57453134934,459.3425681769825,4201.7273919441495,4260.488076340814,-2220.625547863853,3337.2725255387663,17626.148786516784,450.3254166873378,4224.641539882288,4273.9494505835455,-2341.0853048823506,3461.7500043491405,17990.993860754985,453.6190076603707,4219.297873608427,4277.282438611835,-2268.3631342579333,3314.6816350736513,17760.42640956453,465.4296322650532,4222.385960204253,4272.235469774277,-2218.9737135947676,3379.3486272678974,17838.83079199531,456.12997195777814,4217.297791875655,4261.3604971175955,-2280.0991692321522,3270.508585238549,17675.909639948706,487.5430224898201,4219.530193791654,4275.312231089322,-2565.7699890034564,3554.70543373677,17803.726890493905,468.37660730191936,4211.832814358209,4282.202050484533,-2526.599276411785,3450.8898921936316,17741.34445811349,477.23338609185964,4221.283066369652,4282.672781343923
-2472.0,1876.0,16204.0,608.0,5836.0,7501.0,-2306.9465964137153,1958.3477592619615,16176.878630074994,596.8639027085567,5838.479586718655,7492.406697634786,-2615.5900476256575,1756.552450643619,16330.791410666456,610.6137482076556,5834.812892580453,7495.796412370014,-2489.7927456469756,1839.053391791437,16281.231235925121,610.3301878029815,5822.372922662244,7509.2891765783115,-2448.2115334187283,1830.7943972274775,16245.91078017214,586.0681510456877,5839.2282011951365,7504.915482301222,-2692.4281585414565,1743.591011662101,16294.95469546003,619.6167360177965,5834.586048888365,7513.8651374588535,-2401.859945642467,2037.3626230834586,16323.89631143483,623.3316215696789,5844.9929417178255,7510.398953583132,-2446.3680657882187,1986.9940963527488,16342.665467606732,610.9317362361535,5839.877507594835,7502.042910199021,-2335.172284614627,1944.6842716681692,16335.414196025864,609.8949478389774,5854.395961782249,7501.828687546605,-2509.6398895273473,1746.7974317741605,16297.545171281674,597.8215116023209,5861.035800982514,7496.316657354777,-2481.7052754893575,1940.7958166286166,16411.98954356222,609.1966148479819,5831.631103430797,7497.432540396566,-2259.1638658506167,1905.0878253866085,16182.9154605013,625.241320119733,5845.753552064274,7490.022641892965
-3176.0,1492.0,17140.0,-487.0,5130.0,7317.0,-2969.503557924915,1625.263326796698,17128.139518769334,-500.9317952865324,5143.479782386895,7313.411025773043,-3359.7344481673413,1506.4117526824923,17195.868081030327,-498.7120239102571,5133.6979707087685,7312.4195235080015,-3089.6022085561194,1524.2618051429442,17123.127904429486,-491.8917059875172,5131.77706440242,7318.494654307477,-3236.3350027872443,1582.502863221158,17006.684756797462,-482.46780279831705,5140.689749028209,7316.804782569268,-3267.4255081105066,1344.3010882968374,17158.59484088573,-490.8475695738869,5135.345381147368,7306.868881896487,-2911.139578217232,1598.9028461304488,17183.459499748256,-482.0134159798173,5125.770881429958,7332.093359003122,-3159.832799298023,1537.2330729466366,17213.772331134154,-494.22065599264545,5127.867967432931,7317.884106142228,-3140.3880564988426,1430.8230355783223,17252.461460238384,-478.53240772661354,5116.529212658161,7321.407944186209,-3322.3532496647927,1452.4077369628965,17040.414261622263,-490.199201557311,5115.9535583315,7319.932730550145,-3351.6905396692046,1357.130066517757,17171.989297913333,-500.0978940427689,5141.942002951829,7305.940959710254,-3088.179345683676,1587.4857042896144,17128.013115466205,-499.62406101633405,5129.227634958785,7314.021625397127
-2672.0,2852.0,16820.0,-534.0,1907.0,4338.0,-2675.2705857820756,2841.2042323930714,16768.80611409843,-543.0048338194908,1907.1799303103849,4339.226655269102,-2734.5332990295487,2839.1459956262447,16824.297957210605,-529.5936357472359,1908.7578942363093,4351.9890897743835,-2809.1384347856506,2784.411534631308,16907.215038858438,-520.5783909938943,1928.8297354410695,4336.653716604651,-2523.3704911043765,2969.880148339665,16957.917891444573,-529.3901485192752,1901.719830697354,4339.739257004652,-2578.5844391266314,2746.200608333113,16819.740452585946,-539.231629296222,1891.4813204790312,4345.063948202771,-2708.816224266628,2870.6938407418806,16646.145473939294,-535.5394300829864,1903.0744474379574,4347.736885094759,-2705.8669586282554,2707.1558312542866,16879.44124476645,-542.8731526853002,1905.2443285685872,4332.257546597458,-2769.9558329610136,2547.8767133845836,16989.79464235837,-528.1548773147194,1919.3092272849444,4367.980419674639,-2914.297502607091,2879.4946099832737,16863.85562292845,-541.4263362301228,1909.5147850535884,4340.539067114054,-2930.8332764537104,2769.155664091103,16702.885578916255,-533.4252581633275,1912.1094415681164,4328.643001857809,-2721.6001456916692,2957.3299538064875,16831.6334426591,-521.7419117986208,1915.9020382471872,4329.790239822354
-4076.0,5996.0,17348.0,1010.0,-948.0,3564.0,-4232.16346781996,6089.307217656674,17370.407934742274,1023.739816824078,-961.1108218377432,3563.8990825478995,-4193.130196591976,5899.135959799862,17569.493647097464,1011.7578630524331,-942.6339019464164,3579.0439527993517,-3958.867966685073,6054.0239504212705,17470.04965725551,1008.1333127695196,-944.683639790889,3556.332200655021,-4006.772804215837,6027.012167986354,17540.710212104146,993.7183423889809,-948.8423162985563,3570.9625702032113,-4073.484307904097,6139.279868789119,17305.173221242767,1001.1891796254215,-942.5895748084001,3557.4929303923423,-4075.419992862283,5934.172479831186,17231.955708045447,1022.7842090574419,-963.5029636211294,3566.8622331533306,-4099.542045221865,6130.928285043319,17393.764820469274,1025.3354658432681,-956.6716562737573,3557.6898487436365,-4025.801053888971,6194.6597421451115,17283.408840002685,1022.5605163675757,-939.1253653910625,3551.6416006070817,-4152.309672626554,5997.546471636167,17250.773728604032,1013.0480103076236,-955.5019664939199,3558.0584497312157,-4020.995519906117,5969.19498351762,17400.311234985515,1006.9482658750059,-952.3211480367415,3569.0511199245916,-4098.927775450929,6024.601410488976,17391.61711115088,1000.1908315580523,-960.02389085032,3567.1930317685956
-2588.0,3608.0,17184.0,2178.0,-4366.0,-3089.0,-2657.7057659815905,3582.9062364021725,17235.154182209735,2193.062181359299,-4357.60471722498,-3100.439426113263,-2568.678128296619,3658.512232686675,17035.52206520306,2170.152510100744,-4368.028429725201,-3107.072247097416,-2501.1977971602355,3831.0590099989413,17177.752524887685,2175.4565406419542,-4365.166008458265,-3101.7782047443093,-2535.8922669562367,3685.532625449945,17208.207468073007,2180.7219255792616,-4396.616808073351,-3096.5429839041176,-2659.3845756096157,3541.455074514395,17222.87788538469,2191.205082901324,-4373.461849373652,-3110.0043893958427,-2650.4925060270307,3612.2534005702846,17115.491008154153,2178.1338731006304,-4380.57337607402,-3074.019587805182,-2696.863491951854,3746.2734885064774,17065.124990856002,2168.3133132032376,-4357.568265529301,-3103.8538437446855,-2536.5108091207107,3605.249544863573,17174.980754845423,2178.1050868789393,-4376.039263992682,-3077.711118783263,-2486.313769976212,3517.2262448786855,17081.820672521357,2170.192960070053,-4370.2727117389595,-3099.4501457903602,-2638.8605481239815,3652.2428925513896,17084.110886894112,2162.1857220331226,-4351.706367511626,-3091.3992096272077,-2427.8408613175334,3471.091193911448,17167.698739226464,2186.33715915844,-4362.515993524148,-3080.9125113788054
-3204.0,3876.0,16660.0,3089.0,-3113.0,-4283.0,-3271.316224613608,3926.5320456443847,16725.768329884217,3087.0053953850356,-3097.854579962902,-4299.727322613605,-3242.130889238276,3868.1393209436956,16583.592735712387,3075.566418828264,-3099.3751648895177,-4293.173391646974,-3356.78080110697,3894.3045069698765,16799.147630964082,3089.7888359189265,-3125.2428741335098,-4278.397353755091,-3299.307392967436,3683.8268445826757,16602.09288936963,3078.5439318299696,-3119.741527036275,-4269.469693395448,-3082.8263944427963,4016.757491145941,16794.283694185204,3095.1798205211435,-3110.0816157536233,-4282.015606591402,-3302.9263435158946,4012.6219521117146,16813.017742721542,3101.4922426764965,-3094.1694485206494,-4270.807806189136,-3131.716963501802,4062.8571349738877,16700.80392200806,3103.044442777192,-3102.7168504396686,-4268.439399707524,-3013.9698939861382,4010.52596833025,16785.457704503686,3089.2372551326685,-3111.5226198113,-4287.273763075221,-3301.137910794533,3642.514683486723,16611.497210324043,3095.8801660478302,-3121.945798218527,-4286.296133174788,-3164.894121088061,3658.64216738171,16707.122548600997,3094.102449850815,-3112.6391376775773,-4284.02931412215,-3246.1582909042186,3847.6321427154367,16565.3202362295,3094.9420357566123,-3112.0546221880772,-4284.348091596094
-3156.0,2356.0,15764.0,4414.0,-2026.0,-8745.0,-3096.5733621206373,2471.9185951663303,15935.528785165454,4423.273734393711,-2026.1332398581828,-8760.418204738284,-3191.9310120372616,2356.202761322995,15600.788805794937,4398.877518493093,-2022.646523116096,-8744.370958605063,-3020.0889312150166,2156.4488538965793,15783.792594531504,4408.579085791837,-2014.1400893956022,-8757.6220011435,-3259.7162061386152,2215.529561449694,15766.13121866402,4428.613031209512,-2016.7244892529875,-8756.698203405927,-3084.696647468252,2259.4629715122546,15824.909726683003,4414.251618345887,-2019.0971279747343,-8751.828819749328,-3136.4618205430534,2361.520424236709,15713.105926333781,4417.591630730645,-2046.9302288513438,-8752.132991967559,-3168.6855979378297,2237.41165443468,15723.825537805618,4419.437940389841,-2033.1912979790836,-8733.237592443984,-3284.526908031683,2385.4757081643797,15755.404720769311,4415.498691075645,-2030.5736708994991,-8758.939325526813,-3161.647144101329,2371.159791585922,15840.651720785007,4410.9314998235395,-2037.7627444798038,-8741.11351803263,-3467.133418285083,2384.680276055587,15806.255869729242,4416.046508923559,-2010.7397410987253,-8760.762017515037,-3280.903858075752,2371.341129536646,15785.290190464064,4413.221637087243,-2034.123784715279,-8725.912552276466
-296.0,3844.0,14764.0,3628.0,368.0,-9705.0,-344.102094286409,3974.757628555387,14587.423218287508,3625.653439862445,364.73038994738283,-9726.476165212873,-276.0911167051315,3989.0102130996634,14803.77277007436,3623.980744037354,377.5532547563631,-9714.9968487969,-461.55492772901385,3956.5403663857296,14745.928743123653,3636.5450727522316,343.70886915641165,-9709.967613515222,-279.09394934020685,4083.520708528647,14782.296934031909,3647.6540921597307,365.64900902933806,-9712.256982486773,-250.85426617821005,3918.721640256926,14781.41971228534,3619.949092587316,374.71247116654973,-9704.26791951574,-216.49120868675408,3736.376146874916,14732.13524457651,3620.19730229353,354.24011562776843,-9727.27974455226,-256.22722782438325,3764.250085142825,14817.781053578492,3628.692291870156,362.9293051443508,-9706.148698507419,-239.4962534150314,3657.778821588461,14830.55490412373,3623.1161448456883,359.0273276934212,-9696.328529331142,-235.57876553610217,3646.5709030831663,14792.56978795807,3609.1026750322812,377.7703940485802,-9703.899843656367,-246.15534384960466,3794.271811694164,14591.158726181291,3614.7529442076034,362.245843527555,-9711.382965303104,-398.2354660168695,3898.811115842307,14770.732550453538,3621.6185100857588,370.3972156372421,-9715.18521356546
476.0,1456.0,16204.0,2844.0,5714.0,1586.0,469.3398565008338,1560.2112341817808,16253.099407994487,2845.6527885747514,5719.450691250602,1573.1311427278324,492.531124285945,1559.3552832896316,16233.693178673006,2838.890554866307,5717.614553167508,1597.1943925692312,408.25636602066504,1265.4257161365226,15993.535845304435,2839.1018765130516,5725.860701047998,1579.897052783392,498.94868360524987,1519.1089030763105,16267.512979957604,2845.303362077643,5710.631103470241,1570.9672930575146,586.0650339216393,1399.0078026584054,16216.243222960575,2828.097840653512,5705.093686145311,1585.0911152787332,509.4869612367706,1522.914218600511,16285.37577583912,2845.841439008956,5702.595550618181,1602.1083049755168,626.7875091334347,1455.3642066444058,16290.74575836954,2844.6676873218935,5704.032522789929,1581.1634134941069,540.900255061379,1419.1706908788556,16084.350411585367,2852.600296655746,5712.385678401889,1579.322382562246,486.14778844362246,1464.5251662924302,16223.148148355098,2842.220497572688,5721.851748740369,1600.387097866024,521.9462887118751,1474.3307046570426,16123.009944766396,2860.0824930670165,5706.98377560659,1594.0484512957555,348.17526022745454,1473.30404081714,16101.167954704179,2839.297195935958,5712.379744740623,1594.6667678711976
-924.0,1664.0,17596.0,-647.0,8471.0,10690.0,-831.7988917257117,1625.5278258262736,17549.789779983515,-646.4381584951819,8464.97822614977,10698.134008234605,-836.5156386670049,1614.4336965939838,17476.980187307538,-666.8784846729687,8456.470373994342,10685.92001255832,-880.7915422938739,1888.144269813776,17758.013557809005,-669.2206793701655,8463.323500359722,10668.342440225058,-751.8878587439731,1730.2053668164463,17557.981041762592,-630.9059629206586,8474.02357567939,10686.59356117531,-865.65828503722,1570.3521620371962,17575.62539882687,-645.6475445032903,8457.47901434504,10692.90398501108,-842.3190640121518,1772.5842692659564,17638.69377267082,-632.0460644147487,8459.559266919518,10677.082709013459,-762.0529758925327,1606.2968358495646,17533.1352912941,-652.3616471717297,8460.025073674555,10698.905465575484,-913.6836337398506,1626.9409684638877,17428.060949972754,-649.1409206661717,8455.47542200712,10703.049086950183,-937.9800504321208,1719.9282448069698,17749.63375199291,-641.2209350947071,8460.480181235265,10697.745505177123,-1106.3947144550011,1621.5128995083423,17834.185392757146,-630.0870228554267,8482.66953539731,10689.841632041724,-946.2150515448224,1668.7025734914755,17488.49809550293,-648.0690901093254,8466.92413573546,10699.492640306786
-2464.0,-672.0,17920.0,-1935.0,6025.0,14499.0,-2330.6010923744934,-544.4193213851398,17915.400743755003,-1932.1793095466044,6027.331221550838,14504.083661080185,-2287.5411476040526,-518.7617111476847,17918.99137013987,-1934.7675675111802,6022.779659672741,14473.11742973431,-2291.7268865683377,-323.5100189806973,17970.759317120446,-1954.367718047387,6036.061379946542,14504.930843616103,-2614.6395652022206,-809.4629099448284,17917.43895566747,-1944.2456662942457,6048.734165108644,14489.603473319528,-2414.0331745658,-788.0709757079723,18191.704237186845,-1942.2529389351378,6028.832867941526,14508.703370148974,-2435.508169227231,-604.9197999292142,17712.125130470973,-1942.7074069080663,6036.533849985498,14506.346122371844,-2358.293124715333,-912.3802690219518,17968.86771156275,-1921.5481795100168,6036.326643301024,14505.468025439694,-2297.7471955794017,-575.3670818189192,17922.259899637946,-1935.653264572505,6021.322874161987,14509.410787063847,-2371.850209001571,-604.4861439743373,17969.865879478646,-1935.055820441227,6030.915200733137,14482.526206267667,-2574.7106769507554,-742.0185431630177,18192.997486598346,-1929.8172983309055,6032.847470415227,14498.58149252407,-2461.510871402334,-562.2281391427205,17914.16151831944,-1923.3652367265893,6029.227533056452,14499.150081311664
-3944.0,5208.0,17104.0,-2045.0,4687.0,5956.0,-4005.3260398625243,5197.192314005463,17177.620633089526,-2037.3619580312939,4668.196274769618,5961.66611584201,-3847.552694621562,5114.573095989322,16990.26820394279,-2050.3955439080605,4680.191105081991,5966.256791701075,-4034.726412534624,5209.237923233316,17134.293056809383,-2050.5383201834675,4682.636673950334,5965.383716344087,-3907.226792928573,5244.177685167255,17026.256481737233,-2050.5477101411634,4697.586159989282,5952.652719404378,-4005.730152909409,5311.4120666715535,17332.835534905706,-2049.480134516841,4677.794982251181,5957.432620964147,-3985.6119453715896,5003.431492199913,17016.77856966389,-2041.9818850400443,4686.822366010908,5950.165265331304,-3969.629103732269,4957.316882571069,16928.211324539865,-2039.8350277725165,4682.243604287172,5959.92210385507,-4060.037919797896,5096.596125098988,17282.84899276238,-2028.9554353295312,4674.192008177254,5970.945533013802,-3851.2119533901823,5267.168514500598,17237.8436400977,-2040.5999527664158,4676.14849500691,5951.293063593635,-4101.374318345771,4988.93644940677,17190.35353686284,-2037.0532045837651,4678.436035606177,5942.126993667449,-3833.9707745582755,5066.578501053368,17043.31295484383,-2039.1833408791888,4685.4598633759515,5948.232937654426
-5652.0,7012.0,16908.0,1564.0,-3679.0,1478.0,-5642.76362622182,7200.705190069046,17139.66493947263,1569.1268874048344,-3688.724974820432,1476.6806148852245,-5443.488672236153,6792.647060240023,16883.810994923624,1564.3380492768547,-3676.7507525130736,1462.96959894206,-5777.846136774748,6804.891333348946,16909.300782607963,1543.8295253779406,-3668.3835760253814,1474.1392598581228,-5472.876302240443,6974.16668039658,16958.178411966834,1564.6018722678727,-3686.6279222045036,1466.7934676822665,-5530.179122238891,6819.727359182464,16824.665937038415,1573.6244711372974,-3680.9427241952094,1480.9133418272245,-5644.917017494449,7041.730232211788,17012.566722627394,1559.4899669320992,-3691.4269834501006,1478.6481532345445,-5532.803386256076,7025.110046844887,16968.97292913349,1553.4524709250734,-3687.991167870976,1489.262985120099,-5648.778274689742,6939.909718152003,16774.623879613948,1572.8209286443202,-3666.312688705151,1477.1126142540825,-5669.154467863149,7029.4614801848065,16867.89232627068,1579.9224118616619,-3674.2023181233626,1480.3765690894766,-5791.12879051235,7000.703188590877,17052.618776725118,1570.429917476106,-3674.167381689393,1459.1199575765252,-5712.178915332579,6970.30313275124,16856.679352933683,1564.6365096589218,-3678.8552973909323,1475.6648355228783
-3600.0,4492.0,17284.0,4643.0,-9274.0,-9529.0,-3462.3996830730503,4505.571471990533,17448.21799996935,4644.262005977385,-9263.869414453264,-9516.634298557903,-3529.3666972946044,4483.1300184445345,17221.120271147778,4654.817205930401,-9262.302825201663,-9531.581961942546,-3559.462383322598,4643.633282270055,17335.600632400907,4637.660104784305,-9270.22538492043,-9534.265968845935,-3690.1772511028885,4519.845969113439,17054.01391195788,4642.146375631278,-9275.298677785735,-9521.908820234206,-3464.5507875670423,4472.9663768387245,17434.66448970255,4640.266136599936,-9281.890539552382,-9513.49963635208,-3441.636101225811,4568.562177151091,17241.004083473366,4645.165365860577,-9268.777008264198,-9521.835133778262,-3530.003349915262,4377.853760615818,17403.817755898668,4637.997314266233,-9276.870028996223,-9511.154645950532,-3587.5528869293576,4668.428436155256,17152.929173446562,4635.609084778971,-9279.678471087196,-9539.66471683604,-3451.189257007617,4511.447828380467,17237.37893788036,4637.80196880904,-9273.229000741178,-9539.873873459892,-3620.4742424276465,4381.917144366671,17244.67396164446,4650.1498192467725,-9273.285383892868,-9531.534764444164,-3499.8514920213347,4531.120863641305,17176.239635513193,4645.424770790302,-9244.26315369723,-9533.914164212618
-4060.0,1312.0,15896.0,5157.0,-3680.0,-13976.0,-3921.263307690137,1171.165131798919,15744.86217816992,5142.855339215267,-3671.3562011242943,-13959.884184621913,-4130.027708520942,1244.329615936148,16029.070412805067,5159.655530782757,-3677.152628847071,-13990.223284791578,-4102.757988319444,1279.2357075752757,15876.64492188276,5145.8645595772805,-3684.8105143709463,-13960.638066300877,-4071.7532542849513,1381.0961341829402,15880.35315236705,5148.150716958341,-3682.053595808359,-13964.757863749071,-4124.633456667404,1519.7316136510415,15988.901089776704,5138.881031871701,-3676.748247705443,-13975.921997042615,-3941.10101086154,1213.809961659459,15841.47501969521,5143.872133821236,-3681.423148542066,-13988.943290588677,-3972.32918515176,1202.835398643068,15900.85820420388,5158.88340093712,-3681.9383434564256,-13964.357439042746,-3937.82406500639,1316.3485868980388,15809.738230838477,5168.306190804207,-3659.359331464491,-13977.127672151184,-3976.6700097693692,1120.3755647468797,15804.510583391937,5154.400543644326,-3676.665798378354,-13985.636105485055,-4113.538452690242,1314.820555715523,15947.560837015071,5151.501644468628,-3666.437554511237,-13980.028616603078,-4140.223846100989,1311.3226314423266,15954.949690877922,5160.709543694239,-3679.0356558999697,-13977.415706801154
-76.0,5536.0,14236.0,4291.0,-2401.0,-15234.0,-108.99243225969565,5643.418688828079,14449.427870293583,4292.30781209285,-2393.8783555793584,-15227.87294945453,23.019905887681986,5571.6174545405465,14055.218415130792,4306.678911119858,-2409.874869810487,-15250.322483347218,-55.58688404846532,5443.801309493162,14213.293052390782,4290.599080977109,-2399.9982998734063,-15222.498996079514,50.251462737703974,5626.468411049053,14235.499612669497,4286.33236565198,-2414.5582203153485,-15241.34357158896,-31.147117237639648,5438.342376280403,14155.483705052653,4281.769355839417,-2393.951599267038,-15226.1985397909,-90.07070228650697,5631.5370360920815,14133.188433900707,4289.383393819366,-2406.414328850093,-15241.0936724193,33.73136156132861,5567.64241184162,14294.774738905171,4304.123925435685,-2401.220105199561,-15215.441716459332,-194.64493034771874,5580.91198243275,14309.730063474577,4296.7355207795445,-2396.109157340838,-15229.240545195062,27.27734752940549,5616.019370785511,14259.835242813197,4287.907715568443,-2414.193728242455,-15241.352377153149,44.61402121438928,5397.925217032778,14226.343843565908,4300.462912962115,-2409.781094692874,-15224.06687604285,-95.74027690843124,5672.639137583849,14202.339006264272,4288.809537657567,-2410.6803748518796,-15216.59809156277
2612.0,1684.0,16492.0,3497.0,6742.0,3225.0,2667.4452017675376,1722.2662429189138,16503.02165299845,3496.4954239911367,6741.750314461092,3236.3106871300547,2645.3515571969747,1778.8918366736316,16522.18749495973,3503.47407367772,6734.88463351619,3220.765465879222,2647.977421957986,1634.868071155736,16451.692842631073,3506.0542964128317,6737.841374879977,3211.6168494671756,2556.7358140164556,1639.2343441983048,16584.62320995583,3498.196822486018,6740.434345654195,3234.524472162862,2687.516679090535,1547.4148497466824,16397.751096351163,3492.8252894523985,6736.561866941061,3236.0120307015095,2669.6958057884895,1802.638079474125,16293.727942886391,3506.5427714234393,6726.196029785413,3245.0189025665672,2683.3175196689967,1721.7481462752808,16435.58470471593,3501.1347285176835,6746.38061233832,3227.405225702048,2740.8366895208624,1732.6216847860942,16411.1838403414,3511.693322945601,6747.010143568915,3238.5867917823243,2640.971737119779,1670.169143370701,16442.956696495512,3501.8611658878453,6741.261179429234,3234.0523694574754,2651.756302163942,1604.206995197986,16570.732242879396,3498.3194377677064,6742.928810279993,3227.388393549338,2501.662923913672,1594.8336581839994,16547.558775786387,3490.869219302295,6729.675260704907,3223.7845341620155
-652.0,1608.0,17328.0,-39.0,5889.0,10457.0,-678.4829099164114,1695.709792645958,17229.185735161333,-25.159921914312722,5879.857238181579,10473.573297630197,-613.2916005799,1685.457376906199,17348.656330154405,-39.4162766735537,5879.378806770974,10438.228861212105,-810.8698032613631,1691.2854744192798,17321.18523508686,-49.95160247349622,5885.436847316283,10453.628699486208,-689.4845902462091,1625.2930837770034,17388.89612346913,-50.448211045564626,5888.416673461958,10473.166291586036,-669.3140534174645,1570.0897916998963,17405.391407653337,-44.61503825752977,5881.349944773514,10446.543731245984,-543.4840663469153,1616.0780227127734,17293.55387031401,-41.68295815408718,5898.670560010445,10465.372956699885,-565.0621843440781,1466.6954126569024,17296.947433052217,-40.63091393547403,5878.412120262485,10448.441753234403,-614.4909479545879,1688.3907047995033,17271.529364458336,-42.188463935792214,5879.294611036084,10459.04266913105,-588.171096497635,1626.9666034661848,17508.621286656937,-36.53370327691756,5891.166587826086,10444.243633695567,-784.9935270214585,1520.7075110541552,17540.97955350271,-53.540160987068475,5893.870469637307,10472.608741651502,-633.5762004223747,1588.419951743105,17360.88604808264,-39.77512618358583,5892.440036678625,10447.78760399199
-1776.0,-1092.0,18180.0,-1857.0,5423.0,14776.0,-1541.9447787684217,-1252.919981243524,18257.72008302326,-1856.6389446992437,5416.276605436666,14775.153056651217,-1952.34246199093,-1207.7969517239562,18308.526668779603,-1836.8037892524014,5434.365266795526,14772.300459025782,-1768.9325077789986,-1131.9120910007014,17825.459344563013,-1849.7655364666527,5421.717434522284,14776.5020466071,-1681.0064018173193,-1078.9474104113242,18378.498001043332,-1861.6444832322268,5425.543518475396,14792.429239575582,-1796.9184264762318,-1233.1639348304207,18190.874647605728,-1864.0327023372677,5418.4631995921745,14781.843097155635,-1706.1366034624625,-1110.4586013504547,18048.590322490392,-1887.3356617901902,5417.24689758387,14781.90355305125,-1778.1034112527682,-1134.5471938471467,18027.534569254334,-1844.758610406826,5419.406138550466,14790.204793453242,-1795.4091608297588,-1060.9883984070204,18100.7193191448,-1866.474629657172,5421.866617441376,14769.60169623085,-1777.3114215927528,-1018.0883298828655,18218.636173227307,-1867.7992031272568,5430.395846968446,14776.87606646466,-1653.20585819969,-1101.924250473595,18229.971925033264,-1858.0629972165545,5426.33089124371,14780.018076307102,-1648.4221864042972,-1161.0026385774597,18243.01145748814,-1867.0701925882004,5430.523927147791,14777.230201054215
-5120.0,2772.0,17904.0,-3587.0,937.0,5472.0,-5352.685931186882,2637.64622814029,17963.99688299259,-3575.857320506264,931.1140286926227,5474.189678192352,-5135.942852272556,2790.058945924742,17866.720123463234,-3594.854065443104,943.4410657816467,5466.469280388789,-4967.2989124237465,2829.8467211407797,17853.0732479408,-3571.708639344817,934.605556858801,5477.8997116980045,-5338.026426828805,2925.696667364573,17991.215856825827,-3582.9193130401345,940.6690169187017,5482.5518883563445,-5023.38490290803,2693.963939982037,17922.58290819188,-3593.1149100150847,958.6539160619416,5459.465767779902,-4993.240446977318,2751.3351567132486,17823.21829608609,-3579.692375214389,928.1041801507017,5463.579179493003,-5099.269774235562,2780.8742084806195,17763.457797827778,-3585.834161535421,932.7487679579531,5476.200961501243,-5154.543057275143,2803.4295710621855,17762.582770198052,-3588.54598004646,937.6237420904454,5457.194419542691,-4980.339649746822,2722.4472511468284,17751.69165964981,-3576.624383719574,919.5357945209884,5474.3503658856725,-4954.692463454189,2879.619135457603,17987.00809977697,-3601.8124808494867,922.0798024576779,5474.364713866856,-5105.576852349426,2832.3392324508386,17900.521991606198,-3596.313389536556,957.8062691279308,5492.445913540531
-5924.0,10132.0,15960.0,2001.0,-2535.0,2546.0,-5853.845936378294,10033.01270135733,16039.609033457988,2005.741918100506,-2545.895893321755,2554.830459389535,-5848.684700895221,10184.111445232607,15861.598430497064,1994.6208069883721,-2542.111010875276,2561.141496626595,-5606.872178022716,10267.205814110508,15811.587804502977,1995.7418793129248,-2547.3448502061483,2532.850681384742,-6026.8045697834295,10374.863118080479,16004.679751857386,1997.540706667761,-2543.1315739906313,2552.8494704538984,-5876.475886458285,10213.65115153799,15898.753123477773,2010.6597597904565,-2545.5259952593574,2556.120275079666,-5862.431961898605,10007.431453218569,16036.532277809061,2005.8248588069687,-2535.4972304039984,2549.5020630488225,-5892.623645960972,10104.122518451954,15912.298930691013,2000.1128681737378,-2535.548531181741,2571.6454674584334,-5859.83438375914,10107.53163933286,16060.135980044792,2004.1784052279907,-2549.6179878519497,2547.8102633525627,-5980.184965233348,10129.398334895326,15933.96828828377,1994.2192252056273,-2531.41456907324,2554.822997703791,-5937.676766236863,10115.01779680336,16064.54356533867,1999.7722277402424,-2522.68449558983,2557.7583404784923,-5956.590155761451,10026.945731637039,15971.850428656813,2004.1891900735548,-2528.9241771059337,2532.773308108159
-2624.0,4216.0,15432.0,4202.0,-6297.0,-8247.0,-2617.9009503598713,4024.3018616975764,15442.486845587275,4200.440802180247,-6300.682785304169,-8249.682582437714,-2672.9394373742753,4099.1242659147265,15335.582349075805,4193.948400846769,-6312.447815454604,-8266.799439756824,-2558.238153396743,4266.973812537145,15196.341839653527,4181.204088655073,-6291.869630095299,-8247.836157169319,-2500.23959974349,4289.708811795213,15575.675274366928,4198.650971686718,-6303.344560407728,-8263.762941866555,-2643.440562610701,4301.333483200328,15570.144672616907,4199.026615725555,-6284.58823745619,-8247.796892802058,-2751.814438705034,4076.270886209934,15444.886560309606,4210.382474428558,-6296.875235082678,-8229.510832362637,-2731.074257805633,4263.02813703232,15457.906866509029,4199.708497156489,-6298.368758872294,-8249.528487672213,-2443.4123849693087,4283.422365193237,15570.933570527588,4195.378979835306,-6295.437976946796,-8240.241905684428,-2740.0103396618442,4279.390057561539,15397.923855139696,4214.360108813275,-6310.218888592906,-8255.02208323294,-2620.0244973881418,3935.797457991465,15599.202076072212,4197.972568748548,-6293.057877898896,-8234.575646330004,-2580.6076044477004,4264.90656179071,15398.137135933319,4203.391862167724,-6317.706706699329,-8261.911290598944
-4788.0,4100.0,19972.0,4184.0,-7238.0,-15897.0,-4850.958928008884,3840.863056018671,19821.935750776236,4180.060117177194,-7254.117174496012,-15908.388130941898,-4750.09961638084,4053.0368536764554,20052.86321804681,4166.9114470753075,-7254.06634976793,-15913.019941738437,-4971.431184061544,4081.0632541855284,19984.294777619074,4187.542098184541,-7234.891589004396,-15913.954401876274,-4618.8094549008565,3884.1019641006333,19891.1258802389,4172.046800060504,-7236.654520377753,-15904.95153422729,-4790.760622421136,3895.0663558962174,19786.626459355553,4204.979029444432,-7246.679261934156,-15889.202504782308,-4813.836142188697,4041.6650521834317,19931.164654744254,4185.741187303569,-7226.069157936948,-15899.250271962164,-4843.860538096603,3969.0542709351266,19845.854474041047,4182.487572079353,-7229.790735996435,-15881.618896725004,-4772.074929741293,4365.0048879507185,19793.31922200256,4178.372944174824,-7212.678864888851,-15893.123317133626,-4570.41895081974,4175.50517852965,19783.066039428628,4201.132035151708,-7245.03473200035,-15889.941407191624,-4702.741678777455,4101.954650633306,20054.56315764992,4184.8099496793075,-7267.809822863047,-15879.941589934197,-4709.791549599035,4077.3131485803274,19995.07004745343,4195.591519368515,-7237.9646699147825,-15905.396111231212
340.0,7480.0,11100.0,5489.0,-1600.0,-15771.0,430.9443829049982,7424.738190090843,11097.03828840436,5498.585624731335,-1592.0099367598907,-15781.896994146478,187.79397931547265,7589.2529320407075,11013.328956827163,5480.471526278583,-1597.9748734134228,-15755.613474990432,218.23157987403204,7530.863822108633,10999.702818772828,5491.64708495052,-1595.927058598331,-15773.541047933777,531.2147223899115,7677.2279714791275,11049.568079163113,5490.048250303438,-1587.9879013867373,-15748.736684525851,345.62840616833876,7544.656353721527,11090.437413957967,5475.513759556822,-1609.8451560367535,-15770.204738017372,432.186964277267,7464.804885131817,11025.559438722896,5493.977817861631,-1586.270186964188,-15781.714859755597,374.9153818638332,7340.445647623278,11098.821302208107,5491.852885916845,-1610.246565670796,-15779.37465141166,254.9826438898558,7474.484499300468,11128.398112284523,5477.187433670284,-1587.5785123972003,-15768.76355896055,313.8395335903598,7564.118446879621,11126.907440768144,5489.642011911141,-1610.2698785934701,-15779.80549160926,327.4015534174334,7647.014736127273,11198.271600148706,5482.853967270521,-1582.6465318480573,-15770.006080455818,406.9923191248777,7530.948331651382,11160.927298532248,5500.096889593004,-1579.7043187523345,-15778.357256842162
4632.0,4836.0,18052.0,4224.0,7949.0,5871.0,4568.295634746306,4818.218048391691,18134.4172996726,4222.385597329969,7944.274040784829,5862.5549965111295,4659.15302261739,4609.19978582373,18056.599812803834,4212.5950689152205,7957.26260417223,5861.249196076315,4629.98365903346,4798.7731750340745,17955.492500766177,4227.9434165135135,7955.06361962547,5881.425999344793,4705.9282244080905,4883.413478561207,18203.9790612432,4222.6225793157155,7943.681257843725,5883.266564264438,4640.658991801437,4891.2029792390085,17956.494397089402,4210.118052480416,7947.20090419523,5878.030774441744,4856.856459880539,4858.350448679824,18083.852716058278,4229.088910367623,7956.22505201993,5864.039748238198,4505.913598082837,4914.754249529859,18171.216199393366,4230.147612772608,7953.4299139769,5874.180721778483,4672.421064960329,4904.604936566525,18031.90110049185,4218.352277838356,7958.346179960243,5868.614983562162,4626.97375512854,4930.934039832004,17964.816550776886,4220.473984785947,7960.243222727063,5872.75235651605,4676.883967155582,4736.41450246441,17931.32513350385,4221.455603374545,7941.884966981401,5877.256612989761,4570.614152563225,4877.753132352798,17904.253133564,4211.9022349361085,7937.677556163689,5876.687534622061
-1608.0,-3280.0,18212.0,499.0,3972.0,9885.0,-1688.1117316778132,-3400.440877913982,18167.716440485594,503.2465971971517,3993.342621517272,9881.805166145572,-1420.4018676002477,-3197.7372177275006,18239.133200484295,496.56949923352477,3972.5251117620874,9898.175653680839,-1630.0701463068572,-3043.451482332963,18238.728285943293,504.21829439710643,3971.1215549982244,9881.265469980619,-1669.97167916307,-3253.4757003369878,18229.3494186301,491.68405712225075,3967.4367135274388,9877.207224800497,-1583.1774259200627,-3237.4091455628586,18229.335369213055,490.3288430914326,3981.5496156278145,9881.075453777707,-1653.1555352155508,-3329.319233934989,18182.369097833573,510.576587481762,3971.725815288865,9881.840117840073,-1467.1982037582509,-3395.758836519835,18170.46958682578,506.515618124984,3973.951107791017,9875.811016165322,-1636.8785700681153,-3233.175463810672,18340.17121125433,484.7578976141852,3972.387014532056,9896.866109347098,-1566.7965279029459,-3308.9005472774297,18226.17210041059,495.44684023879364,3947.939808877594,9868.955080586285,-1760.8170544759564,-3216.859229816227,18185.321537445623,502.34254974646456,3978.3361305796225,9890.810654431603,-1667.9628766529577,-3057.4552087030224,18310.6471763775,502.6116080329288,3982.231622527354,9906.422102124208
-2012.0,-2224.0,15660.0,-917.0,4098.0,11880.0,-1876.9959721638618,-2184.456028932159,15563.499806043494,-908.1993844847077,4100.465665410698,11875.03795384118,-2054.8573825294006,-2255.076565749486,15765.810016163457,-923.0329281740469,4098.239765788512,11893.80299613201,-1951.1465471855363,-2353.183941707829,15620.512355706864,-918.868464876795,4090.086471255087,11880.905723511083,-2070.9234037555852,-2195.852080640258,15852.32988761334,-904.4250516704644,4107.66995718418,11881.490549706221,-1980.433390019199,-2124.2639405136024,15695.612113680249,-901.1960697872169,4108.787817947892,11885.52985196774,-2013.8861107115824,-2237.1841524643983,15554.198840683506,-917.5958487432322,4094.9374723998985,11871.968323551762,-1897.908371264533,-2334.363839858934,15749.490561747232,-917.8854334231843,4113.633464425288,11878.19134488996,-2074.50029386173,-2206.864131151059,15555.613583764043,-934.2219230312143,4093.8967948414543,11858.403701611647,-1992.5799808725646,-2279.703658621895,15740.07621269367,-940.0885907145429,4117.518913496783,11876.289645199326,-2032.2092782627765,-2375.351900066279,15659.068756702047,-900.0537750197595,4095.2156943424916,11893.445257285117,-1851.862932008174,-2319.397470817135,15605.312464083865,-928.3661620487186,4088.16068949266,11874.203733657823
-3840.0,2160.0,17012.0,-848.0,4536.0,7284.0,-4015.11405944811,2144.428540486449,16934.120168516405,-859.4628474583689,4540.813294113008,7268.453445454029,-3970.5546173870007,2251.934673943804,17033.48351201592,-826.9266087802091,4534.016316916821,7270.592166134778,-3701.0037609216733,2234.4358281556997,17130.723232092372,-843.4415821264793,4537.136158605533,7273.262084170821,-3757.742724301297,2147.8274493642057,17036.458784954506,-840.2183311725852,4542.079876749929,7282.386508301301,-3752.314630173303,2137.4609466182897,17030.944892170926,-845.3559823252697,4540.499891966761,7289.549801481219,-3816.244753368331,2241.5987437567237,17015.727402034492,-842.5650307329886,4538.27036014484,7287.222888641672,-3829.150030030904,2157.572751356859,17137.772661653216,-849.4526156605262,4526.2309480110025,7285.7364341581115,-3769.337609060466,2259.032811229705,17115.07154610553,-842.4853128432406,4550.829020056035,7284.007948827168,-3730.2495080407866,2075.5541111248062,16907.930811450387,-832.8786215280239,4531.375401509239,7281.220423459846,-3888.775620688088,2123.6109139081664,17116.902648733983,-843.0300874243867,4525.380543382134,7296.647919279394,-3903.6797465785435,2130.6205803113967,16941.486017423802,-852.1492754625235,4527.21194022179,7290.322992068266
-3988.0,7968.0,17008.0,1751.0,-303.0,1054.0,-4049.113845051783,7949.288268476964,16847.605646460575,1752.8143819392876,-304.19508554902353,1045.0826916691246,-4020.254871771346,8045.770599020248,16880.145842617352,1764.2301187643197,-311.4573544951853,1067.002881739196,-4063.8726291020016,7915.411713329173,16958.203330416534,1741.8013602834164,-289.8008280514755,1054.3772112878476,-4270.412392566219,8069.192168464185,17160.826156158197,1755.6569913781088,-318.58696481107165,1053.4766467303555,-3962.2486021373365,7984.591868785314,17005.276477142528,1755.13224710297,-293.6886148748594,1059.261427097714,-3933.8995414100586,7965.506744977319,17174.990939979405,1752.3902302196998,-292.1740344121736,1057.998868206155,-4024.6158279943197,7925.121813345931,16984.69804789923,1763.3576699223152,-296.6219692364717,1050.0185010621706,-4032.13481489856,8100.403372476582,16968.600879786653,1747.3545371175294,-276.49873456599397,1051.7025379723225,-4141.961001639918,7929.810555401521,17106.55225218515,1749.3103507006715,-287.341501698746,1037.1686071890501,-3921.187190711737,7971.6355874819,17004.62020435887,1739.6263718026944,-295.3732495839792,1042.258092118777,-3952.050709773882,7900.382338334368,17276.98293506981,1756.0744127729283,-296.44408902293617,1052.2940089915694
-2880.0,4300.0,15828.0,3584.0,-2570.0,-5832.0,-2774.4520454115504,4277.881979194698,15831.306078376658,3581.765894058845,-2562.9757075596963,-5844.186634368566,-2826.707512582299,4215.331167684673,15848.63432045018,3574.677154369653,-2583.951052201867,-5834.697003084149,-2743.3341880254,4537.380541123145,15748.008769331154,3586.755212010607,-2573.115463042351,-5835.22097100665,-3070.413132893193,4368.373893934067,15752.114091769861,3572.5919415452995,-2590.724840420309,-5810.731423645889,-2885.2737645293632,4300.727019049837,15736.65007519151,3581.696326070678,-2563.838262598618,-5809.478520310808,-2863.7580247300257,4199.161184649825,15855.847468985532,3580.6809934590906,-2573.4125653648944,-5819.750207295789,-2957.0255761606754,4126.380179314073,15711.739412428336,3582.559955541067,-2583.5951314219433,-5824.378789134252,-2900.4786179619196,4130.133758959708,15897.663031298434,3585.212013472955,-2579.3015176542485,-5824.607895436034,-2887.361357475947,4278.270216039393,15888.912161879554,3593.832283344941,-2565.62533856855,-5829.788971038551,-2842.9275154535335,4253.439291245914,15875.211154964221,3571.620564223277,-2563.1807604952623,-5833.61313688802,-3043.241641732061,4223.6902408629985,15884.876036690368,3598.292884818644,-2567.709236133904,-5856.149525296966
-3208.0,3260.0,17152.0,3312.0,-5701.0,-12231.0,-3134.6950101826314,3273.297414906583,17133.77113465246,3311.610454516977,-5689.076196203564,-12239.361368284539,-3460.95616073671,3125.5711274174273,17243.86038103831,3321.7380900279313,-5711.834650920392,-12221.62427177852,-3284.2206684003527,3292.2707630432305,17147.030579097398,3299.7921779536996,-5711.967063876301,-12239.612595681027,-3243.1526448050226,3248.123520743728,17338.82352881058,3328.636301342179,-5707.324986031639,-12232.460642400794,-3226.9970062683583,3228.9390601935643,17261.163493186163,3306.813048403537,-5699.178080663833,-12236.692608963298,-3216.6980978901715,3220.7280080739156,17359.635282987838,3309.8870387456477,-5699.819232934534,-12222.073108767829,-3142.498896674909,3270.539745419167,17070.544442013186,3304.3840416389894,-5707.329168789222,-12246.682413739627,-3033.5858745687037,3270.0278113803283,17139.910745938647,3295.7241461325125,-5688.1862446461655,-12238.824782706255,-3174.9866969682644,3098.406411299245,17120.878870071607,3314.098045460799,-5695.878376120214,-12226.46993775078,-3257.847746511275,3119.5857358460557,17087.115192949746,3313.637764325954,-5700.63754779722,-12237.786211581517,-3289.137821202245,3348.063974580819,17231.9144469156,3321.5760159153206,-5695.960070252539,-12221.443991357113
1100.0,7640.0,13876.0,4005.0,2899.0,-5986.0,895.6779081301335,7635.157399640782,13798.241169587835,4008.4259711770214,2881.004097112002,-5994.612556647359,1020.2523518295709,7741.155159441631,13930.452573796756,4000.152519996183,2909.852979296783,-5986.9352291363375,1117.7201535451231,7706.982919943701,13615.614841110708,4019.840690653395,2915.0252150258684,-5988.0520845828205,1178.3847065848422,7658.661339098258,13586.407723105676,3999.6002318426463,2908.0985746567526,-6004.136814605406,1126.6482813068658,7420.091711675652,13904.362742043137,4007.0969166924283,2885.294826592424,-5996.643528346412,916.8578518223212,7636.181840390153,13911.239362118526,3998.435943958106,2913.3357907529316,-5992.405567674292,1094.2327825267996,7705.469358044668,13743.716182527956,4010.374525320376,2908.5951673192067,-5979.509039228717,1141.4563185971576,7654.299646246105,13868.911272759164,3985.7455896214856,2895.5350329778653,-5980.259377823448,940.8781217492368,7378.071523644364,13898.163735481203,4012.156722457318,2895.3802210328636,-5985.262446195098,978.127503774018,7544.069556930566,13907.242678188122,4007.2758507139197,2900.0755557105567,-5995.22373145934,1178.2374361409143,7635.13308121946,13672.960890297189,4011.7355920916657,2909.110041488674,-5978.447528145273
944.0,-3348.0,17016.0,1165.0,6170.0,8553.0,962.1038212064316,-3512.4434551640643,16975.625441555017,1163.094019756329,6172.130865684581,8550.348124008426,1040.0784751582953,-3293.262413012289,17097.138700793363,1152.377373463103,6180.827956972659,8544.27847445169,938.8781126283977,-3368.1736222925006,16786.042497429396,1160.4115721877467,6157.111187794031,8552.280026293456,1007.9075959895964,-3388.71128900687,16975.594825296277,1171.6481638480152,6193.427064034009,8528.670925449771,1103.5907447023906,-3466.372939755519,16918.264730838077,1183.434287786424,6163.823716571765,8551.40446027996,985.9821594848925,-3290.7894173035306,17020.536344913122,1180.6900375548298,6155.346418020981,8551.855773724326,1047.9608687717734,-3420.219230850901,16920.61989967459,1157.6664230398,6175.95337616566,8541.845358821225,757.7232940264214,-3566.0781260237723,17022.08171682838,1144.8300309552005,6179.57219194279,8541.299026221717,888.8612449364074,-3436.0412943935135,17017.448833164668,1165.8914245032722,6162.735128179579,8550.13088388934,927.8854231729069,-3402.8938067913346,17019.19453080185,1178.9370290639747,6176.054334353656,8562.245389599004,1005.3187916190982,-3546.2700587148274,17073.89478385932,1162.3491292016595,6172.485302478822,8563.677271838342
280.0,-1408.0,17372.0,-764.0,6367.0,16223.0,242.10504229168484,-1224.9412572707051,17321.624342304167,-771.7855931620305,6373.6475601060065,16222.223801005895,481.08760874197253,-1422.9769246117232,17357.222149632296,-755.6453161938085,6364.27286336882,16222.827786030644,213.24764280074407,-1513.7157866513535,17559.388210284953,-762.0559714775825,6371.731332340589,16217.041605427774,169.38163891380145,-1436.49331162613,17302.483223912506,-767.3960538734283,6368.853604420923,16229.694737875227,194.015130883638,-1424.328279777921,17276.42252155049,-779.8627462976251,6367.603461564715,16222.97063298535,277.0557838530587,-1386.2909977691259,17507.081136932637,-764.9642792567515,6377.992921731168,16230.034167898742,267.2301336774551,-1351.2123876215874,17356.165403869414,-760.5288287437779,6366.717565085159,16230.163424917188,373.85578311751505,-1463.1714601268272,17387.4921791139,-777.3634509256253,6385.121848107239,16217.280781359077,404.82217783187946,-1351.1621540934182,17193.253628588875,-758.4574695667125,6367.023869373247,16222.474564661048,380.0812627959848,-1445.5233078506765,17351.088142398265,-770.3883341103534,6378.528954265207,16208.771536119964,388.3655768004026,-1363.077775215383,17371.009999815058,-779.0347119570807,6361.906893562287,16232.814259086172
-4020.0,-4308.0,18556.0,-2161.0,3720.0,9688.0,-3894.6545161252807,-4376.212460833874,18578.639785330764,-2170.1848054087754,3731.611736465723,9690.9199327107,-4090.5001853279205,-4163.312897512913,18556.677189522015,-2158.3061200005727,3722.0512524800906,9686.54020324143,-3916.079828986631,-4382.447322093032,18736.340473455908,-2167.1539607372683,3719.5445226472393,9702.761383229628,-3858.702060491854,-4268.419433490745,18483.074227177087,-2154.547605772441,3725.0287594865513,9665.480294605848,-3945.9739868953766,-4258.628369534887,18504.330806441572,-2152.185570376889,3740.7720746994823,9678.977365712164,-3935.2893915139302,-4313.338641437637,18400.479792548424,-2158.808040077797,3747.6341288625754,9688.801608339234,-4141.147678919304,-4234.755165556301,18247.919496851035,-2176.4302177084896,3738.61270647833,9696.898559957794,-3999.593670284379,-4325.624987220295,18598.612730541146,-2157.461198599677,3733.8817596424706,9698.341456527533,-3910.2221932859425,-4195.902916336307,18699.668057149247,-2163.605138047102,3709.489397101396,9670.776791925397,-4026.4166439519463,-4323.299861732398,18480.948811754595,-2158.7692173219802,3712.894444500472,9691.052070630729,-4019.803294819169,-4325.489794798336,18498.894843967777,-2149.2725360586396,3708.661558008211,9697.189373078843
-4900.0,8532.0,17032.0,1309.0,1983.0,5287.0,-4827.349502168304,8702.196995935883,17160.516793769857,1302.6690922083721,1984.5975891823791,5297.338613762871,-5006.70284101595,8674.769110057561,17065.739698025383,1306.09633984432,2003.0088223363448,5284.9359755853375,-4843.570575089749,8549.346201980197,17184.43636766221,1295.8992434141896,2003.6102401180374,5291.026433373473,-4750.932725931464,8611.322574589003,17106.664447768766,1313.6755090990446,1967.2776496632503,5304.868570887141,-4989.544902366144,8368.781795790934,17116.95231092233,1323.8074921755447,1976.4693870387332,5289.7985079133805,-4870.673781814326,8491.772106265033,17060.841798822097,1300.8956993897355,1974.13019273605,5305.8149223077035,-4920.6912526911765,8729.928629867112,17038.483000132645,1296.3567604505754,1977.743418539617,5294.608972412051,-4943.8444314455255,8288.263569409884,17171.707183412003,1308.3719050403333,1981.1035893101641,5289.896654928406,-4854.641917335241,8338.191610683207,17081.81540485291,1302.4045391782556,1983.8818554000104,5302.015802299619,-4856.185627741362,8407.30046833111,17086.321470065996,1313.222793771887,1979.57883147472,5290.108141586224,-4833.550546242444,8439.137177746155,17025.48566590283,1312.2098271452976,1968.9288235107558,5272.557287086918
-1824.0,3312.0,17616.0,2736.0,-1433.0,-2569.0,-1793.81379060044,3355.8291488405152,17295.151702663803,2743.762333034398,-1446.0641167370402,-2566.8007221840007,-1802.0309635118033,3371.457369106133,17645.590476957703,2735.210385342154,-1429.6178656073005,-2580.1249892265882,-1875.9248763467383,3301.7436132513585,17588.87742614161,2733.43589626097,-1418.213483497973,-2569.0586944492916,-1750.223164915615,3283.4387257067124,17546.115121312767,2742.9797771945973,-1434.0918505110985,-2560.639744283091,-1822.1223483854897,3301.589257072697,17659.061972046846,2737.8528289224478,-1415.0072273899302,-2557.3331585124793,-1958.9376929914777,3200.2367938269895,17628.069221102178,2725.034391168918,-1423.0960393139878,-2575.133439897689,-1820.5201773851545,3276.942510804121,17525.41223432562,2750.7188163959063,-1429.2086083094196,-2564.686973422807,-1758.4037405991498,3239.435187793184,17664.13219801886,2729.7322610673887,-1436.809286429299,-2544.2617968239,-1938.8085617608406,3203.596397620919,17625.44939050776,2746.8001408924565,-1449.7182400647057,-2574.4069319987416,-1955.0762372315332,3547.8592119332598,17486.35081651251,2744.24391418706,-1428.357912945045,-2578.121576073077,-2086.646254791319,3086.55758231431,17681.430327058708,2744.433784608225,-1434.0750506221727,-2562.012037290487
-3732.0,4264.0,15660.0,3345.0,-3468.0,-11621.0,-3684.6581468226886,4168.423950948557,15759.89522385145,3351.644220182138,-3456.100162662073,-11624.883501491782,-3642.763795449012,4193.470441145392,15675.522187439738,3348.376952933919,-3458.6996675447213,-11617.355265757322,-3837.8967534770863,4376.414286095467,15744.328439502659,3369.039766690865,-3473.7846615433464,-11616.542493239447,-3804.741966818191,4369.279800757661,15565.724544334988,3348.851720261146,-3449.238998020705,-11607.705315059078,-3615.8450451897397,4206.812317502906,15608.268285402719,3338.3719392115754,-3464.58796853897,-11625.39482051673,-3727.6102439194497,4247.49367665858,15828.630603061436,3337.7141616628955,-3458.3554334675464,-11633.792977338839,-3684.3896381141644,4171.764014779773,15672.413447865873,3345.3193132076276,-3471.880982139944,-11619.49890125784,-3909.246897074529,4279.795867238071,15745.733831392963,3329.196916774367,-3454.763033570989,-11622.790539851077,-3760.0042555901114,4292.285701613528,15585.949752712886,3354.9656727180027,-3468.4706813384787,-11608.43973993414,-3904.998085612942,4303.018552795034,15696.07519790708,3346.6982257508002,-3458.0089588422948,-11635.487312672394,-3833.380166110186,4233.934022029123,15636.961115603373,3353.077543552062,-3466.715965839324,-11630.937966941974
-1000.0,4096.0,16428.0,3857.0,1153.0,-10107.0,-1048.400372573775,4149.995587603116,16341.256915257425,3849.5270502670082,1139.658243073505,-10101.632172871941,-1016.7119185218737,3902.4983069918844,16419.7527719441,3859.9897712933193,1154.4826054769128,-10107.47289784704,-864.6847947205457,4033.3732547197424,16349.147215447396,3852.4938610953905,1146.855156088309,-10113.904329445835,-941.7732509775525,4184.1323328232875,16507.180453391324,3857.5233569258885,1162.278468973526,-10104.613799235252,-1010.6467670171717,3961.0488892136004,16267.705040221741,3870.674766804771,1167.8391116467594,-10116.787688225853,-1017.1316166236115,4189.128433532714,16325.94439986247,3862.4451833202556,1167.2742754828976,-10102.90350211803,-1195.43611138499,4149.980462200575,16458.775834679273,3852.4958247684767,1132.1578854951317,-10112.31085914127,-998.9382459025371,4124.364262027159,16502.244442085634,3860.0175042299497,1172.6555895766307,-10113.211407251194,-655.0500227621113,4059.740854228802,16392.478991622065,3859.3342378884017,1160.017486057097,-10097.401797319926,-1122.782129564016,4040.9978908791477,16422.943720682695,3863.4833337456303,1151.6889096461307,-10100.676495385464,-1007.7506337596117,4131.966152408652,16468.30359738706,3860.5713640454,1152.6438524295047,-10093.095983526888
1508.0,-196.0,17192.0,1675.0,3907.0,2622.0,1609.7922328603775,-108.33537843671132,17142.092010656103,1682.7777413953343,3904.1905683871196,2628.7345498955615,1726.6098954219594,-267.58834505797296,17213.85832116211,1687.1656108218963,3892.390214364649,2620.717121015672,1639.3420004785075,-97.39449485883453,17153.32929556162,1679.6944088521116,3909.2646799426775,2612.0485576181704,1518.2492652180315,-205.7949844875647,17370.305708100514,1680.0078995684598,3900.3888679437428,2625.83917245356,1410.8530627062605,-145.5815248983119,17073.876227348173,1682.6796735614992,3913.9913011101407,2620.636576651277,1470.0549326653006,-185.13647875929905,17197.33520001361,1674.910274850311,3903.2210746590486,2621.039045507371,1582.5093587300034,-84.68299097688728,17271.476839168805,1691.0606522526668,3899.1150579556365,2628.4445157909663,1460.7468250587604,-322.759903226507,17388.51936469438,1682.2349064362793,3911.0892981198886,2626.3429731752394,1368.7805178959284,-172.32504391786514,17274.063165216197,1679.1963019939246,3921.0312533762694,2607.1835571221472,1573.2806498206546,-373.06029746524587,17144.576684963657,1678.1864057481653,3909.777931259247,2612.4372783112963,1484.3549064159147,-113.91297693600372,17104.04018259569,1673.8359133226893,3889.0909113410366,2633.5952762392517
-932.0,44.0,18864.0,-694.0,3301.0,10299.0,-1060.2792015032371,-76.84682087827434,18912.92191000616,-705.3898399932075,3285.469432723268,10303.964043430658,-798.9449085068777,-38.04682765546089,19063.3525739315,-682.256407194937,3304.3505631889284,10303.864283103452,-789.8040046215649,-44.07407518214305,19024.693453457206,-693.558874943188,3305.6912380141407,10306.962809541232,-1006.104523649255,97.14793158021055,19053.196184909146,-703.7696308598724,3294.9437004580905,10289.859089005031,-856.6510667251421,116.84672953204567,18818.547262157284,-689.131091031986,3324.0458775610023,10287.39671777011,-1070.992113970742,23.800282027418458,18705.489431170114,-679.199025273191,3299.5875449193063,10308.754394728865,-1035.143890558284,115.63317837307108,18851.055501767478,-692.986574815636,3295.7396058776594,10296.901512751254,-1019.7263414218789,196.96977650122523,18896.458811878205,-702.2294330987387,3307.474120237964,10289.101266179947,-790.9303198260902,238.00388968963952,18947.03190574152,-695.2426030705773,3313.1574869526294,10310.512813121357,-936.3626279868954,53.78046475251686,18640.047119480805,-686.3390311712667,3292.913141958259,10280.293660031264,-740.2291509712621,14.482865033525794,18787.654571783703,-691.9375960342204,3307.4922162607313,10298.3860673863
-1316.0,1456.0,16856.0,-1169.0,3207.0,10639.0,-1382.1688595684934,1432.9165226052178,16964.038449635576,-1157.1311479688081,3208.323236830921,10645.544211538014,-1151.2417689208921,1292.3558925431196,16737.109131356887,-1179.3924746860937,3204.6418695877865,10627.930985590121,-1256.3085437372479,1394.5367462931558,16965.008013450642,-1157.023803713894,3214.583864512421,10621.85646268957,-1368.0987217459756,1452.3576014098624,16893.17449976853,-1159.700934458969,3216.3574915919453,10626.633699937189,-1315.23319424592,1497.0494570153837,16833.857309040814,-1150.6033946177786,3198.134759184276,10634.940328667113,-1367.7714636864105,1408.8482406199173,16840.806645699602,-1175.4279119636305,3202.930387553359,10645.704665973266,-1388.5320482859763,1484.075965755432,16891.407936201536,-1163.2098837627493,3216.2736383451297,10646.064869052989,-1349.067624975005,1608.7160751991194,16940.815827969363,-1166.0391073162004,3237.401601661924,10628.087899724034,-1420.8530605431943,1331.227428216422,16800.516851328564,-1168.8664950995499,3212.6309361704352,10639.993099821595,-1418.0767802945852,1441.9495520074422,16795.86184354135,-1174.8260654237627,3213.467502023019,10640.240670445377,-1265.8935025312965,1349.7568022734044,16766.35861297734,-1167.0009169239406,3203.7116170849467,10654.733465565047
-3016.0,6748.0,17176.0,-208.0,1523.0,4479.0,-3034.685917771828,6751.0666768339415,17224.007700647497,-210.02754341772726,1514.1856881370772,4463.643818820246,-2946.0290780352475,6707.776628835175,17164.78807733328,-216.09264262515717,1539.4903720647483,4466.425690088127,-2999.465229774767,6617.494686668761,17251.084399435742,-208.58607597069673,1519.8747381006172,4471.517107500782,-2985.056980559159,6738.054198983765,17341.311946942147,-201.41664044960334,1528.3380118952532,4487.465467854385,-3084.099280296102,6822.576326581718,17192.740594740757,-206.17330032413483,1524.2186987116233,4485.083217037759,-3071.728433971423,6726.575697335162,17076.45230811177,-199.59809441743266,1501.6423198706048,4485.781621635395,-3158.6819433904916,6757.728344141579,17324.662605216017,-206.51483969103174,1519.2986562451272,4488.791276599669,-2902.8950525132086,6699.089951030913,17158.446072470353,-204.95655371632725,1513.1035902209044,4484.467048192145,-2977.8436891506412,6604.215803674541,17142.775555372114,-206.96857420026777,1521.2197147675727,4472.795543176552,-2891.100449467618,6582.425482293011,17348.376428843672,-203.26235392488528,1495.6367921359872,4478.638336512914,-3078.2954309867846,6786.8487428468225,17212.845072790074,-213.0752469001252,1510.346838961965,4476.3779749605865
-3736.0,4520.0,18600.0,1921.0,-2007.0,-2924.0,-3622.27108462933,4512.5645627516915,18289.641865220314,1920.5857895176507,-2009.5843680174696,-2916.6890157601056,-3845.005320407936,4359.690109418638,18558.775004031544,1919.9228116335325,-2003.8060910260767,-2912.209412605139,-3828.652102355442,4465.990810182256,18449.59612908621,1915.727077205525,-2007.9272550824535,-2924.36799436389,-3852.6763361339904,4498.001882605845,18710.793584761002,1903.4606089732495,-2020.770052639749,-2945.149441547241,-3803.9497355732306,4477.366384262164,18530.305334615885,1926.6984655569684,-1992.596790120883,-2921.402759034232,-3914.3928200915207,4548.179477805703,18607.85031001692,1916.195267894521,-2013.5124356635547,-2939.18726888754,-3672.9685284275497,4361.259927718968,18469.189625376817,1907.797491931953,-2011.4676991686079,-2916.2018689818196,-3746.3904414085187,4747.881809378636,18600.12672487296,1927.7932302993854,-2018.591823078763,-2932.8293235920105,-3858.7874155137465,4561.251664010748,18614.636494110586,1920.5840166699143,-2026.82081469538,-2909.5704335030896,-3769.5269915582503,4414.434574736511,18753.795641588204,1919.0135685760513,-2000.0724089087882,-2927.1617180679605,-4011.4016586073944,4508.74597681291,18715.342013240068,1933.2733863762712,-2008.8759134503832,-2924.858129773823
-3616.0,6880.0,14996.0,6417.0,-3160.0,-11306.0,-3628.5855335852357,7026.329438230171,14909.172008140627,6403.830221865637,-3140.6074973156406,-11301.999436231152,-3519.2452290938836,6833.17179760379,15107.50846983328,6412.882585943524,-3157.5285649581597,-11301.516148208071,-3653.8629434390923,6883.058967162548,14828.385781210163,6396.843111627574,-3165.9042164301,-11311.192735364853,-3718.808330589276,6828.191770250302,15019.642594338557,6409.20468592767,-3175.444631665635,-11282.671459186751,-3651.2086188845906,6910.814928471079,14906.954400597244,6418.033117198167,-3178.6248455142545,-11297.552666387845,-3587.3358733411737,6809.905829264216,15070.852134778142,6404.12816638978,-3165.819385555612,-11280.87908405678,-3575.707726627136,7001.678115445354,15000.44765677077,6423.448034454916,-3167.409041450496,-11303.980377814873,-3771.8082666284404,7084.876438867957,14944.056789538581,6420.155269144734,-3159.7164471462575,-11303.33753158543,-3571.244217000315,6833.452417173668,14986.355447169724,6426.826588979054,-3164.690014645677,-11302.36041062578,-3552.0900477318073,6895.799536122837,14809.554460095733,6407.362178485726,-3161.026403289362,-11302.068811339894,-3794.880437166075,6791.685952813213,15107.079779090942,6396.6859376450375,-3154.6613314966858,-11301.02373294132
-376.0,2992.0,15196.0,3272.0,-2257.0,-13164.0,-340.7308953978299,2890.03596751921,15209.007124366946,3284.251845634733,-2258.0278282712698,-13158.780781925221,-488.29854524430675,2827.3564047851582,15363.810778012792,3270.363654570365,-2259.9386638739215,-13161.912089071066,-348.9574021822044,2788.986084780448,15050.054626566369,3264.0509652419823,-2273.5703156582135,-13159.822666848984,-269.5706959227816,2997.4559693723854,15157.405776735743,3279.265503898172,-2243.4899113403085,-13174.554166176618,-465.8149028452908,2910.7036842314146,15297.589208006557,3284.3479102961023,-2258.9681764369957,-13159.072005166805,-368.67899904009187,3052.836919672038,15087.72716697734,3290.465465030026,-2266.4276203073164,-13163.211195092119,-393.7135745319399,3121.132294338202,15212.779919573259,3286.977608534778,-2254.9794997940944,-13145.393664920604,-685.4482155999669,3083.706087782089,15346.945206893657,3275.6632134202596,-2260.252952366404,-13149.7599128207,-382.79166592211834,3056.1740054711277,15172.420078321602,3277.8866143162927,-2256.404847232813,-13164.330040291394,-381.80359718374893,2945.967309361545,15156.468861140162,3260.9988009443737,-2257.2456439275547,-13152.262610895617,-364.8418896030401,2976.1483601295026,15167.658004322631,3291.4167784203596,-2268.7991183244253,-13184.192931044565
1700.0,-2312.0,19132.0,674.0,3643.0,3895.0,1752.7667783924178,-2433.270557346861,19170.172456310152,679.7811181280565,3645.575226119246,3894.051479465738,1679.256807144961,-2150.8163902298984,19101.53437705363,690.8357794592172,3646.1192463519988,3902.269633547207,1878.0815803952664,-2462.7180627737284,18959.598909881315,669.5216281339831,3645.81950666669,3891.791643298024,1688.3917628917995,-2282.6037028384176,19050.866618119184,673.7830825097817,3632.127832136925,3901.7052712946984,1821.8666314338943,-2248.236659286474,19116.54923417149,673.7988072890441,3638.105280705041,3905.5406275652235,1817.9021343486227,-2340.21475884598,19083.44871691322,679.9299199895478,3638.4855721941985,3893.951126552939,1605.3132231872876,-2323.952637680323,19005.034467290156,672.397782521949,3643.249407488312,3890.410155845415,1684.5962560511373,-2373.6426996636146,19141.635123019416,667.7782831092604,3640.8282885373696,3903.886222626332,1721.4723207537236,-2379.6245778043817,19001.61039979564,656.6714929770961,3665.3066644714913,3896.2414501910375,1740.6835700751446,-2340.700816337422,19246.396937304857,664.6930699349275,3631.893252157132,3874.468749273091,1532.9443835775896,-2182.4444076545706,19056.70049108286,675.2944140990893,3649.05980126242,3910.0077953484824
1148.0,-9300.0,17560.0,-3315.0,3824.0,12412.0,1309.8190498589013,-9239.157939818777,17626.419609103217,-3310.689047006482,3813.0003709833522,12403.470861938144,1081.5209254132242,-9342.78433026324,17618.00801860447,-3315.1388413455234,3824.2330109236686,12392.799345931926,1159.9704290101217,-9276.207234383128,17539.316031879654,-3318.552541826857,3824.8575300680814,12396.121946710871,1215.4541863685731,-9187.190543714074,17687.864024650786,-3326.764941583669,3829.5460625708306,12419.55533890008,1163.1981677462536,-9247.494275543018,17577.574566166055,-3314.0435908715344,3823.5300168088897,12401.730965174356,1063.0241496961405,-9325.22355438506,17453.211159922168,-3324.1593183871455,3817.0828975268305,12407.446356648588,1267.8527252992321,-9411.005461520012,17587.25634555599,-3312.073472976602,3826.6340207569738,12399.105737650341,1334.3037636232377,-9214.852734181632,17704.613694231448,-3324.5867236064223,3818.1597749296193,12410.455623685979,1088.764311227748,-9360.467516859093,17624.74285302054,-3300.9193863368673,3832.6715662583733,12404.22206067023,1184.5758282252514,-9038.73000868581,17534.420783596892,-3335.0899063496104,3843.594146766469,12407.62160328594,1008.764403854786,-9174.648241764751,17671.640443302604,-3323.574445516392,3844.0779273372195,12420.644416517123
792.0,4420.0,17416.0,-451.0,3932.0,9790.0,870.2029593427607,4268.337823484608,17386.23733529131,-455.7343956089323,3931.224091879278,9794.338609823279,862.5269415589343,4309.889643041972,17376.72490327058,-446.8392674958083,3931.4014418566862,9795.607703330768,753.571013305483,4570.314008877161,17269.143954272975,-448.59126845649985,3912.4830066695295,9792.004596222443,900.5224185704906,4394.777973567426,17547.91498045029,-447.18963537933513,3933.4445079975962,9776.870891882318,622.4461594564658,4385.183347549951,17317.38566190774,-437.1332145595988,3935.675933999285,9780.47398393931,728.916390221456,4344.752166541126,17428.82001827147,-443.69029404617055,3931.2747780299082,9794.419561700586,861.578025447427,4504.637798451197,17392.724147608147,-466.79953816137106,3931.07329994694,9791.706642432737,876.2340417040868,4385.143536162641,17822.098479802597,-438.11853771574516,3931.5247212365744,9789.520591367416,730.1761949374225,4309.330918195683,17376.437978686074,-461.3050070651819,3943.616133103531,9801.122655994612,796.7777085952287,4422.851932013516,17360.393820139245,-454.12723490780195,3960.4283086528617,9778.342910646792,627.939698813216,4316.640618836774,17474.60472540776,-439.2799518979255,3925.0833902992144,9804.085248574196
-7380.0,14236.0,17856.0,-2199.0,2112.0,4624.0,-7349.394136014666,14234.8582017549,18070.664688965535,-2187.02017068366,2119.2476151595133,4620.94923239753,-7317.029447315666,14142.872020752733,17875.40160674532,-2212.7647208790395,2104.828010530868,4632.854109243825,-7543.010880451542,14181.635003715384,17861.57790097509,-2210.8213888252876,2104.4762793697078,4621.047097351348,-7299.298305549428,14245.197824664243,17983.36201567542,-2198.434308741221,2120.041258705154,4612.504708946602,-7301.580656016107,14283.168520103,17954.4634534558,-2200.560044460057,2101.1843623499585,4623.2069175759725,-7357.8883246997675,14387.110778513892,17836.28599341039,-2194.788862910346,2113.641989668345,4625.817363830195,-7415.047436041554,14316.485660056858,17712.127964012565,-2191.05014500169,2126.102888959925,4630.157645215107,-7449.359821132607,14207.697244220253,17837.927279792224,-2201.750100374221,2123.5790525595144,4642.119430227171,-7339.405856957569,14201.816841381324,17863.013182989394,-2204.7237812075377,2117.0432959018885,4620.295361832076,-7460.630935978207,14126.95478072514,17668.10801527188,-2194.31851151925,2110.4089567673673,4613.415604469222,-7462.583602980883,14217.024216478769,17887.288019845946,-2187.3296470393298,2110.1848932132802,4615.051776883539
-3568.0,11152.0,19160.0,4624.0,-1156.0,-1209.0,-3709.0402284892443,11033.422629041414,19238.309786657162,4618.392671317542,-1161.6393384194062,-1212.6675601953586,-3652.106173190747,11146.929817833843,19134.576144104092,4634.22501105555,-1162.4205984745167,-1213.9047132566789,-3433.461113622014,11046.372188690746,19093.576583428694,4623.770796412231,-1186.6380032503023,-1198.9585765774684,-3581.9737987007984,11053.980383390577,19195.68757608008,4618.132377118611,-1156.4926849641763,-1217.0917065333724,-3598.9937804013025,11077.512617141634,19132.39430627386,4630.701997500876,-1167.8765757458893,-1201.0451209860012,-3318.481432790983,11070.730026945557,19156.608937251734,4623.41401457782,-1156.3214472283714,-1225.4868259058674,-3387.2889219352605,11131.292936132118,19186.871538911946,4633.862535916441,-1153.4891096782696,-1210.132532751622,-3559.9261831948825,11027.063561420258,19304.36792579679,4639.72890607273,-1157.7398233896458,-1209.1102774945057,-3625.069275283549,11330.501085674965,19252.127677094686,4620.875962478517,-1158.4194605015455,-1193.3324859119,-3584.7490229949676,11138.250796532917,19175.94972743063,4633.785104420172,-1159.0377262245393,-1214.0316832894073,-3662.9658022305716,11255.490394283175,19359.80451765401,4631.9592475818545,-1152.938788778281,-1215.6938076129095
-3884.0,7184.0,13996.0,8905.0,-5147.0,-8762.0,-3849.032669650409,7206.747956994493,13897.061179736706,8891.14433965916,-5144.205169120826,-8755.984013988496,-3835.574265909539,7385.202910052235,13984.452466697277,8895.055370342237,-5133.876219404766,-8753.731577280698,-3867.4216683578366,7221.367285196145,14037.197176694448,8913.032436408997,-5148.575355240035,-8754.599082141165,-3896.4659894117754,7246.5955901486,13979.430420767982,8901.96229638654,-5148.10578319685,-8758.671020537795,-3888.466606719579,7054.218186793036,13886.110729749193,8912.560024539107,-5153.238656797741,-8752.586037616542,-3918.8895267809157,7299.610608016292,14003.425659056713,8909.882194265329,-5137.6052306715255,-8759.252925359859,-3913.0875970400234,7181.862091306212,13901.328008924134,8910.821957116666,-5141.912665757979,-8750.876043174094,-3750.1074093890707,7338.756861637351,14278.288632749483,8895.317435733665,-5139.943005875303,-8763.182248093817,-3754.2305864031973,7244.1840987645455,13997.59906764243,8895.58044421199,-5143.6835968813375,-8786.390420900449,-3777.116619508019,7245.1055765163155,13949.59313166903,8897.274406637065,-5140.650967787532,-8751.74442272927,-4022.6712124641836,7177.510611537178,14091.774732991364,8899.663116637528,-5167.875040542402,-8756.562817948676
-296.0,1680.0,16412.0,4380.0,-2322.0,-10524.0,-340.97915589573626,1627.4955387599707,16540.79664849064,4401.096091870452,-2330.630837046074,-10537.416892915222,-348.4927912403492,1661.5192628798782,16421.66778030233,4392.793910950077,-2317.257974982783,-10546.69828358765,-353.5232741167515,1608.821180657772,16315.141884734612,4385.325241585637,-2322.5180302487183,-10535.760186378242,-329.6508918138042,1727.9002177133139,16473.562711644907,4371.758776035374,-2328.5369173069193,-10526.609516206232,-390.66804727022526,1671.9104042692504,16624.090073509637,4378.495040988286,-2305.4596169427,-10518.761975690235,-262.29533856826447,1700.2604141925133,16355.531764273974,4379.717084513967,-2318.8714600182707,-10531.851195025623,-318.21619462771787,1673.336873473177,16268.483023174032,4399.170138716641,-2342.3364245357225,-10549.722746482572,-407.53037010173495,1835.9087672844082,16343.47841186839,4386.019421346445,-2313.10566762741,-10512.237368362654,-281.77484473176196,1625.1438107877489,16173.287460410269,4369.8955542741805,-2310.772594805251,-10520.228312948682,-285.9704314046134,1644.2206247753795,16471.151610885143,4377.935241717481,-2328.913336112867,-10521.01369349343,-147.31894252920225,1783.9912502367274,16380.848105877434,4358.215014322918,-2326.235624205222,-10516.733817283939
2116.0,768.0,14392.0,2830.0,6230.0,2574.0,1956.7579239210977,642.8600958070233,14340.447445228714,2842.2915136565334,6220.737921042512,2565.9697895828303,2216.9339729561925,840.7768312949593,14468.724076897732,2846.1638753919165,6224.3664033253335,2557.3569945432805,2160.85500779635,659.9260867414337,14447.553178415284,2828.2203596164504,6224.595611119837,2593.353873276202,2015.8623140700802,791.7381368562984,14285.117879802241,2839.0304920076696,6238.761996743548,2606.4033505362963,1921.5119109114314,694.5069403386321,14393.111525794482,2833.489685296887,6245.838883400194,2576.6436015396343,2143.4817263528803,860.0305480440824,14350.610289945009,2827.0559010566662,6233.94125816015,2582.7058846544624,1990.59204715506,707.3986282499109,14532.119323282324,2824.49708092512,6245.098016344989,2570.2101845802085,2129.3004804336515,621.9553779160422,14352.315580580836,2837.384749984171,6220.566135637438,2584.0503045343894,2056.7059035649922,850.6648909399224,14373.911854216592,2841.1462538730875,6238.071823917062,2567.471439694487,2046.0210596696088,895.1781936831436,14350.674833278124,2832.471339028148,6214.86096294339,2565.2560261809053,2092.563897805336,783.3184595377838,14400.490954963558,2819.5023605448946,6239.415669930781,2585.7608063987263
-784.0,-6004.0,20432.0,603.0,2961.0,7091.0,-845.0048064149794,-6082.9945350752605,20589.873588791597,618.357637646219,2948.594196065437,7096.119190575913,-735.6086305250411,-5989.6103561711425,20504.016025312845,599.3362428782291,2975.3040857698124,7091.876403242128,-726.0863821672278,-5932.183174311747,20380.68332878299,610.8809208082163,2973.2682860852933,7083.296312789824,-587.3083065217481,-6010.73551126163,20365.313328447075,596.8860686957455,2965.8377513232813,7069.170977085879,-894.3225425639205,-6012.302776046919,20461.579650510266,605.5529285502633,2949.2584572657697,7096.0829429287,-551.3741610237665,-6102.088868729441,20392.969304009282,585.7836825096471,2966.5241758168336,7079.439242210758,-901.9023183837239,-6099.070151082663,20401.781965242946,602.097849279067,2949.6748251269605,7112.945616323087,-697.7121182418608,-5963.455246708892,20276.752640850336,598.7249001094771,2948.8061903264716,7080.930442608085,-892.0181555411909,-6265.2462368074675,20417.009254258835,596.2898235813377,2957.1304389347893,7084.4560178132415,-729.2720762846824,-5814.597450956485,20350.51008892517,603.4644057144124,2962.8757294137686,7073.833053049806,-779.3523081409816,-5971.83650501497,20578.208714831453,602.5438758176304,2971.493970109106,7087.242957908877
-1684.0,1704.0,16832.0,315.0,133.0,5698.0,-1740.8069806133142,1706.6504102580307,16858.192036010914,328.47791350756626,160.20417151086727,5683.718381033192,-1677.2369951442663,1829.8194937752278,16776.49297425964,331.97263618256653,132.47869301622134,5699.493321701418,-1812.4834910186364,1715.1385210654826,16745.646524976117,315.20583391566163,146.96225141393802,5694.347269380664,-1848.221936329096,1710.8793118475269,16906.289797500394,304.96358493329876,126.75825824046055,5695.342015479484,-1571.9335316382258,1772.982860578115,16741.164108734625,308.0352200537231,152.14396090446758,5698.650690786931,-1627.2361495769244,1651.8637436258612,16824.252902277873,311.0815693343648,142.81959164023263,5706.388010842021,-1664.8916512153846,1607.3682224530576,16830.516904625132,323.21732582123315,135.90144110477368,5692.390763445339,-1759.1022364785565,1750.5992566586094,16763.0691881326,319.21550684362614,125.93593337677717,5703.4409467517235,-1467.6180347770141,1465.7300527704665,16797.99501194244,339.4092227544227,148.64028422317153,5705.66750013119,-1660.5391237777585,1735.7437523144479,16797.379758464795,298.8478688771609,118.90319175320764,5716.047318598797,-1820.2664034943134,1645.623483169412,16826.052225415224,310.8405164981972,136.0315371908433,5697.258713505818
-3488.0,7372.0,18528.0,1926.0,-561.0,-874.0,-3651.210408143131,7202.343611710925,18400.206595848056,1907.6538165324755,-566.4309188567097,-864.0436602353882,-3440.1083870403572,7374.998689189867,18453.55968532724,1941.3910587142748,-552.2194855817093,-889.0314135067214,-3565.5171244432,7464.219618503276,18512.408971082215,1923.3832918827643,-568.451150315884,-872.6773385515681,-3518.575995112717,7396.859925787359,18515.065173922147,1926.4109730889054,-552.1550834027693,-878.0443609492183,-3384.066707781534,7523.030240875615,18658.72150132849,1929.2995942496536,-548.5211331833425,-870.9523785264033,-3556.2646100075153,7488.078189034449,18571.098407323087,1939.9987060100775,-564.7069450572403,-874.84759659781,-3647.791954463068,7228.140175138082,18621.74717270321,1916.4734858171769,-549.55018018186,-881.4367149905178,-3757.1775493630903,7479.981810128497,18543.66056463884,1959.4945146572954,-582.1411195148416,-866.2167188751173,-3514.2757600371315,7395.634614978128,18513.374409466658,1930.2589684168777,-567.7823976440691,-877.3835716432286,-3413.3022576422486,7486.292471719044,18533.051666643925,1924.2175582003304,-562.0538168608999,-885.5862021823658,-3348.779542320568,7340.26445438956,18471.125555851744,1917.8250445629715,-553.7070279114814,-878.8404695273667
-1888.0,3716.0,16764.0,2743.0,-1868.0,-3141.0,-1885.2538528858672,3754.868777486373,16623.660910280105,2760.076639986943,-1859.3384597888248,-3141.5065796524564,-1793.052867764463,3690.3422070210677,16941.412891000527,2749.2044669288675,-1864.5573429570056,-3147.5018328107117,-1929.8219617498482,3683.952381092172,16757.72737839777,2734.343688826482,-1870.249311503049,-3152.939977721639,-1845.0931692875663,3588.1571442694217,16744.233753674678,2734.171497143048,-1866.5439252592016,-3153.3320704503676,-1952.212452600026,3699.9538064947997,16784.316838561186,2753.0692861261764,-1855.9154583818256,-3119.5728376783513,-1953.1335442390339,3734.177118295649,16731.911111109555,2748.356122096415,-1861.7647993718097,-3135.8554555582937,-1860.5516891284342,3759.72735383673,16788.249242547685,2744.5768410688956,-1857.3744645384695,-3132.3956151846687,-1949.2812885632147,3784.4942594713143,16592.583728947924,2749.9051111679582,-1859.9555034122222,-3137.0043122728653,-1847.8751298125953,3767.7841000940607,16762.5806422205,2747.93818705686,-1869.477006126245,-3145.1137743883505,-1930.0915932879461,3669.721914732488,16830.11860209374,2730.7278708381286,-1863.3178303865936,-3147.5161109328637,-1769.5849875152817,3644.997643719491,16716.671767803047,2767.800542557972,-1893.3448510293294,-3131.8495661951893
2272.0,836.0,14900.0,2117.0,2647.0,1928.0,2188.360777003953,639.6706121740822,15045.264726432557,2119.1310716191,2640.1904512209476,1932.2666152822483,2308.9842772563384,879.018053698655,14895.93617433123,2127.6013339854007,2659.55347226597,1928.4953738533702,2456.229320086577,730.4722019555967,14904.855027349931,2100.5167774024208,2650.4824660702,1917.2349250600814,2174.855215421784,923.0927588418612,14939.163753997527,2109.309634189915,2640.1523204908844,1913.6301005205717,2226.070322802299,926.8130504180467,14993.82769068679,2117.2671066459575,2640.7001335654304,1924.9433018407676,2010.6743387478086,838.0310212466717,14898.070095609495,2118.7264682671375,2653.8456930884126,1923.2882324704312,2344.56997430148,940.2170922083992,14892.290795741623,2118.9941240246853,2650.729362508453,1938.4462178241886,2257.080516312909,960.3568997878555,15127.221834098498,2112.489478876162,2652.613210931087,1918.311525490487,2231.5702039272164,839.2686796112445,14975.271197531643,2130.030835580479,2648.5757318973533,1937.3727726015807,2212.465976421443,763.0596786972695,14966.835585761897,2130.5428231280953,2636.03734941322,1919.3192574116028,2288.5699174305496,837.3532357038415,14913.122316720319,2109.691053795057,2662.796409658279,1926.0135257185102
360.0,-988.0,17492.0,-280.0,5958.0,7528.0,201.82083291415458,-932.3263806670363,17444.755954317392,-275.7155482571339,5972.043513274763,7519.631372371608,231.73314945153453,-936.3193231278991,17301.053940718914,-268.85011469400496,5947.249820704645,7535.854355058432,547.2782479709648,-1004.2846769757659,17614.96608062506,-266.96733893118096,5958.307493572004,7519.0177746571635,500.94621097097206,-906.6222055250912,17366.58369840481,-275.38805571567804,5951.362930348196,7520.353730224747,403.0078529853237,-965.5644300008487,17346.86018424684,-286.81462259198855,5936.2014662963065,7551.396194027934,272.76155265033276,-893.0905161913914,17455.855332200477,-275.84660308084113,5949.366855033094,7535.13038341578,333.2566647256705,-837.2885770531552,17587.80176426572,-274.44768045844074,5968.77941682947,7534.051608600754,267.37614947559865,-953.8438354330104,17430.446830791087,-281.26128646993925,5962.047860016025,7526.097349013042,399.87104391484525,-1103.8905913868475,17452.293371570217,-276.1777283761631,5956.153196173016,7517.878756464239,401.56686101386026,-949.006329789278,17362.541294627994,-277.80066486064874,5962.397502767719,7536.6102244189315,223.04960799968958,-992.4779123295166,17631.61154149236,-292.9172351841474,5946.544583497115,7521.838396795562
-436.0,-2176.0,18736.0,-3087.0,4049.0,3699.0,-488.38806274038546,-2166.9881971612535,18785.41557169459,-3100.2798339368883,4036.4798582472476,3700.1911041588105,-322.31949722546335,-2251.921339648584,18802.78851638904,-3088.3804657507703,4065.4774895016376,3697.4461168074376,-493.4073994741762,-2046.276831434431,18741.975091214437,-3067.603985700462,4032.3518327104,3680.794093176658,-443.5140769221868,-2095.146869980719,18825.539075815046,-3065.332391057859,4080.360061412284,3713.4385204272717,-330.4421810081785,-2178.9939393500454,18711.085114697074,-3080.561218931259,4038.6766183792984,3697.130901255475,-233.66074026876476,-2235.194511025354,18760.590183608143,-3085.5634289022196,4040.0534376970804,3693.010367170214,-464.8413193147856,-2164.821172593942,18733.357253881735,-3096.62256854696,4040.1054318493007,3696.160755116861,-360.59217548000964,-2313.026200527202,18531.79971910031,-3095.870739392995,4028.838329918685,3716.015392049329,-316.48517879628,-2028.1448926429653,18787.604526059862,-3081.6028928671426,4040.687449836121,3691.4941879465478,-433.96651464482113,-2249.6708882028465,18611.632802315857,-3086.6032606616595,4051.5384445532413,3698.5904457175216,-328.66858268507485,-2257.3037604860306,18683.354567794642,-3077.934774245231,4055.2301649357337,3702.4495843643813
-6860.0,10720.0,16452.0,1023.0,-2613.0,-6803.0,-6786.601075723411,10729.358693006914,16359.546624408786,1005.8593343914105,-2618.144794146021,-6815.681947574592,-6870.215652536717,10751.614176659798,16498.4370545645,1060.5394208022094,-2606.204684018164,-6811.038012233621,-6991.2395500218045,10679.392145916174,16300.147346282198,1034.4254983699964,-2626.822905709093,-6807.189828106946,-6916.676759955817,10851.56990813534,16372.289271512891,1028.6629621470745,-2600.4793776740507,-6805.086795294155,-6955.549355467892,10770.326000334571,16549.692274383146,1020.8563299951119,-2612.304085459423,-6801.98959684493,-6946.026456463651,10778.597283081654,16482.540493449862,1021.926872670158,-2603.5763064395974,-6798.901419486328,-6867.911764314012,10703.045815862359,16345.995724100287,1015.2813855272631,-2609.952208826821,-6807.807450458802,-6818.602411945909,10746.808694905043,16602.634744116163,1026.8222373738643,-2626.951673807968,-6803.825743590711,-6906.797433593219,10631.753725768676,16456.062787334562,1038.8568052611133,-2624.5856845810595,-6810.15442227577,-6806.8670718835765,10893.801234010514,16454.215339224902,1018.4835731424096,-2629.2755403258625,-6794.240371650682,-6919.195256449843,10598.10438017591,16407.922679184896,1030.4485590221404,-2618.0303545882207,-6816.696989991615
-5228.0,10364.0,12708.0,10938.0,-1667.0,-10124.0,-5198.410814342884,10390.148157618161,12624.15526629167,10931.488483094165,-1670.2019684704944,-10093.118417476808,-5334.944251687074,10347.90905114171,12605.49954573881,10936.974648259195,-1677.2637976259284,-10120.211768726049,-5122.46221163387,10412.805607837372,12738.930210658504,10940.218725296063,-1675.7606528128022,-10121.194141660924,-5281.636903487766,10399.470344606325,12609.664757017013,10935.051041909142,-1667.379970432613,-10117.919996642053,-5191.558347665008,10393.041363957593,12677.22574614573,10921.527660816753,-1661.987213085446,-10127.191944150261,-5283.827971567006,10480.528570733686,12736.32821807875,10926.157599487111,-1665.7270091318915,-10129.93905020641,-5205.844782155128,10388.04732992955,12711.264361333908,10952.590428427067,-1666.721163882957,-10101.265279292586,-5286.794447854552,10343.491487079786,12635.71916734271,10933.719776818993,-1676.9919280650702,-10127.676026716845,-5333.727146921879,10275.614787677496,12717.62831841593,10934.034749050974,-1649.890390808125,-10130.929053535123,-5192.837490938345,10381.953238190177,12389.20629996534,10938.066093036725,-1671.0888529699082,-10120.551518181452,-5326.965465185229,10415.512533428873,12914.629470784572,10944.08431465837,-1650.7754617099026,-10134.816024705227
608.0,2544.0,11560.0,4876.0,-1427.0,-11169.0,676.1474144535908,2702.777943332336,11595.166247616451,4877.164772631828,-1442.4778087420318,-11156.037906431593,529.7216153302016,2485.0748882625494,11368.573453625231,4870.9960003034,-1421.4742463071216,-11179.996399112437,619.8977876976104,2445.4968977216768,11589.369543549581,4878.813625482571,-1439.5050966603246,-11153.776411594925,524.0762311599358,2464.081634590253,11552.174332589342,4879.166331252252,-1416.7022393651196,-11153.75353095773,480.18486742749593,2505.0595687147475,11539.71594593515,4885.941759377726,-1423.6365907209479,-11175.868547289907,821.505512693168,2343.832842121504,11607.317990619618,4867.8223431273245,-1439.3755790499354,-11177.982137187631,663.1754597708391,2569.274739059124,11566.581743496537,4892.593899884953,-1430.440788586091,-11181.892732579496,521.3168564673281,2545.5168191019984,11591.718143198572,4872.0259401980065,-1420.6955440648533,-11169.97982084489,567.1819923882092,2417.909353684777,11507.163937877947,4872.986054922056,-1420.667518516794,-11164.863907687202,600.5749183842295,2508.179858900792,11659.231184088687,4863.368724194176,-1444.0899939233343,-11190.697055439101,638.1095363762633,2573.209154667238,11601.880941003694,4858.216753213273,-1422.7273422621608,-11171.66610582698
1940.0,-5888.0,18268.0,-1255.0,205.0,2061.0,1861.4474536613266,-5929.045487657834,18442.18687680961,-1255.9607570122378,199.2443759383021,2052.366170499541,1809.612754648303,-6005.269075499027,18246.174886572524,-1254.4959773728476,208.0554280574042,2061.7434845344605,1980.296132441137,-5952.2550613848225,18367.08519163365,-1260.167701544161,223.65026086005028,2059.70899809706,1902.7329500076578,-5937.308899967099,18043.45469711077,-1249.9709360501524,196.09284229511658,2058.4180570350622,1844.6158723883323,-5839.1941673651,18173.236105165957,-1248.8644257320634,199.12306537449055,2064.685316059116,1957.3030907430216,-5919.896684377807,18300.16341535272,-1269.1161918799783,200.99858790311035,2037.0750103989963,1915.0881867167375,-6059.958546385753,18313.847085736164,-1263.5598016810568,206.6749808895715,2067.0721710338225,2040.5630265580792,-6049.838538241053,18135.923647757874,-1253.2284928102843,196.28835913047794,2051.7927741673216,1994.1383717930657,-5938.734428160747,18297.339487767847,-1255.406031779184,209.12691791144238,2072.5856448451673,1856.2268601314843,-5836.387585250002,18263.62851392116,-1268.560012492156,193.4247588747663,2042.6973363883853,2010.8896652351386,-5977.833533334776,18085.77985371437,-1260.9614404532865,218.94314764565468,2058.9113184648118
-604.0,-4856.0,15992.0,-64.0,2891.0,1329.0,-519.1831331781002,-4808.978305818941,15867.605469903414,-60.77931558227749,2886.3001159173073,1340.4421568992996,-554.877037024735,-4932.114620555537,15973.409104875189,-60.143781839484774,2891.2799919283716,1345.1232203730062,-585.711702597829,-5003.7325191132295,15962.7078731868,-54.60482190139491,2896.127181991895,1335.0624843390171,-568.5457530499468,-4744.389870966912,15791.215866408744,-56.096659037909404,2900.53890067224,1309.5388560546683,-552.1501744685023,-4820.493832983932,15984.188179798512,-59.24444844506953,2863.530650628088,1328.035575790542,-411.9162598457602,-4809.8761987962525,16082.717236430253,-54.261742707235975,2888.362837568653,1321.607541966954,-731.4344209872547,-4889.0388785705645,16100.763658805978,-67.75871535812136,2891.247129314582,1332.9407455605797,-541.0763932115022,-4931.216867135299,16054.784633468918,-74.70869051915247,2887.8825769484424,1324.884648698629,-669.1588436321664,-4944.258121307419,16027.654500055474,-74.07757624099159,2890.813226100321,1327.1143409844524,-712.1444855659253,-4875.776519772168,15918.429830812947,-67.01190399475107,2891.379929139798,1336.1275775218455,-614.3452854767729,-4823.472198089854,16017.675152662643,-64.83039238077885,2890.7963415166355,1326.8061378609007
-852.0,6980.0,16048.0,-2278.0,744.0,4143.0,-933.8602747680211,6863.185018285944,15917.52870823292,-2283.8747243844455,748.666478019044,4148.62976215425,-845.7234143904764,7020.52888051921,16166.86705150133,-2279.558044875494,743.6338223433289,4146.749273056476,-1041.4924122268003,6982.57540359109,16017.193519083607,-2267.2819048633296,731.2468241458203,4145.517456320913,-924.0574060620364,6971.812145309694,16019.465959202642,-2287.2518655970994,726.235083644591,4140.500120032752,-866.6216793767683,6794.920645142204,16020.39754793777,-2278.1577248860035,729.4370856038602,4149.409103819839,-709.6540544248237,7028.454099714228,16013.437507240627,-2266.0189786495616,739.4525252108468,4149.154022441076,-691.5173758630934,7010.578081493161,16099.545724582618,-2277.0019092947437,758.7251443012606,4155.68180084132,-642.8950406658919,7084.072020560546,16060.91924612154,-2286.7614722786743,758.3403446435517,4149.609828220753,-872.8070735525666,7110.448694717017,16067.829755042232,-2275.2074024784442,753.0786220640904,4135.311502804663,-769.7205642077621,6774.6445019180865,15975.54792951365,-2274.345757086416,727.3294500087226,4146.382601443116,-805.0513838213847,7101.4313072527,16206.942858889573,-2294.5400001909215,730.6389589484791,4149.61646377606
-5248.0,4072.0,18560.0,3004.0,209.0,2112.0,-5399.866421992613,3946.3324585855544,18660.408841296194,3012.509213340473,208.79366355276449,2122.118789165518,-5150.74943257774,3897.1544568237714,18645.7193800213,3005.9977021931595,211.80487182207773,2099.8000401325944,-5148.788757018515,4017.9741604441465,18656.064655686674,2989.7886791972724,210.5806019092961,2124.950831981173,-5330.280037155643,4166.330086933327,18552.503747394934,3011.6912613093173,214.95920202236965,2101.146461133385,-5433.290021849405,4208.626844245108,18624.106795277847,2993.5493738913065,195.8485285493059,2116.5365551804543,-5369.676414008712,3972.380924061362,18502.5704958103,3007.8440081059994,215.18280791585855,2102.6927487382363,-5268.170151274589,4085.1007725345326,18364.04764674052,3013.9704432413164,197.7119975663702,2111.4202513584873,-5191.169650898363,4197.022407951152,18602.103068490364,3012.5953573694997,204.67035169934266,2121.7408382282915,-5507.545709829047,3976.9619537023755,18556.281277227004,3003.231074278591,222.04584882449643,2107.593621362415,-5165.483971793687,4251.61835339998,18561.320471728926,2987.708009902291,216.21963020833888,2109.931262489008,-5183.52592578182,3992.0814275040075,18400.73600549987,3000.163160634829,202.0026875717039,2120.195401595351
-2220.0,4784.0,15736.0,4882.0,801.0,-328.0,-2211.652082086854,4868.689310054951,15903.770584845483,4873.493604913113,809.323468899666,-319.4207945685013,-2118.048829491215,4753.255512307827,15793.510980735997,4880.715741472871,805.351111557962,-333.03343174851864,-2214.8898892520942,4800.0593493889355,15629.593491296198,4866.745236743497,806.0579833103001,-333.22930136190956,-2237.127426928863,4598.334894278203,15655.082802356346,4871.522344141228,801.5534542381088,-319.82708678801646,-2121.8457476596404,4677.7632435005,15923.913131619625,4882.029311762009,788.0417003768149,-323.7736661452933,-2379.333279184604,4694.6129827155355,15635.764082594642,4871.910841525831,802.5330970719607,-341.3927502887213,-2259.3383072894444,4823.039375232273,15650.705765402166,4882.341197327409,802.5112990096841,-345.7311993546044,-2309.542297839365,4505.813448270162,15861.541707998647,4889.292863504729,807.2730423236765,-320.10470286621876,-2113.489011611912,4747.067173682631,15876.856426135335,4866.057431011173,804.5403722641853,-321.71644119618395,-2195.465689297924,4950.848534030804,15771.863918888668,4877.984315631436,805.8734401706271,-331.09218466881543,-2348.153777362987,4761.530463293286,15848.915958395319,4888.474029576512,807.0449162039885,-326.7116356350951
2204.0,-3616.0,15876.0,1765.0,3460.0,2926.0,2318.094518592573,-3553.5188221307803,15902.469724225315,1761.2665374479084,3459.3750429939005,2916.289906390728,2033.6979790751614,-3674.5169136993154,15871.859979808962,1752.4254256304678,3463.4100814340877,2929.034439528337,2352.8691205092014,-3658.0948355618934,15877.238859954068,1772.1433569624398,3458.967305966476,2916.21697176431,2234.7149248452574,-3600.9695740279312,16081.959960314553,1769.566786680409,3466.6116808074107,2916.9894303046053,2200.189025627561,-3684.8755587882983,15814.57825438011,1751.6385692634917,3466.514913025108,2942.9412837935797,2209.3213733796542,-3574.3783767781315,15725.839622528925,1763.2744972835628,3450.243827417484,2933.387264643188,2282.357435587961,-3672.602195328873,15926.709173057594,1752.381094911717,3470.975907473414,2921.9250411819535,2101.3840959680074,-3550.3088330007295,15983.421803285812,1758.438387927952,3449.434483659222,2922.6781842330834,2117.9458784489934,-3679.14175119785,15942.182145628238,1784.9412971132892,3468.360492347659,2942.130761226725,2115.6149865664397,-3820.519162312711,15942.104009617795,1772.5235388616086,3458.1852447319234,2925.1651196205853,2124.4051677838875,-3668.617240618777,15895.999463244472,1775.6893657058397,3436.228185027495,2934.051695332596
2400.0,-4516.0,17728.0,-2409.0,5920.0,9968.0,2419.378084392376,-4538.731278368802,17863.261576568704,-2414.790048198102,5923.979660641963,9975.29656901448,2423.5362390543314,-4541.699222765817,17689.741752481204,-2409.9544217334983,5925.246164580412,9970.133496851104,2416.823996407369,-4420.749865939132,17745.856680805657,-2396.5099320304525,5927.777634544358,9982.82651717721,2267.931652164001,-4588.102191661853,17619.709463725918,-2406.5200617817923,5922.969196683245,9954.4335883765,2597.057592336266,-4554.692734802902,17620.23064206893,-2398.1265835974655,5938.132389351805,9972.769439033951,2290.48099880285,-4603.103020664485,17736.327980311136,-2419.009353117795,5928.507289965225,9960.919110340272,2469.814554245097,-4566.727995262573,17552.56647727399,-2423.542347434093,5925.484420843209,9967.233056524821,2435.216484086618,-4239.806225661079,17608.78047805849,-2396.72328228292,5932.8906323422,9962.4379381873,2502.2369296633724,-4435.954838808506,17795.19453397272,-2416.379502498535,5923.520586884389,9967.885506741288,2451.9328940180494,-4513.395732199702,17616.749226027583,-2395.1420146319438,5915.982753669516,9963.691022829771,2440.0260238826704,-4554.2738932249495,17982.25303433285,-2410.057643073205,5932.945005116352,9981.572069130936
488.0,5796.0,21656.0,-4478.0,2674.0,10667.0,483.28345938258803,5768.141077552423,21579.611566964493,-4475.1925684646,2670.8231849179506,10662.452522265054,473.4579001586645,5794.472937762396,21609.06804734805,-4463.203690818594,2674.191324371406,10669.6169075206,468.4686047129048,5760.222448790249,21841.86875166888,-4472.667707957841,2660.589226239814,10642.09429057134,570.1159442564549,5852.342433877192,21368.33483009716,-4471.469311331763,2679.9246515975256,10656.268761047664,645.601075751668,5816.933992396211,21660.379014463226,-4465.475044606805,2684.8512882585856,10669.829962529911,377.0328887146168,5493.539074028053,21688.803403493803,-4446.335548457882,2664.1503498414827,10664.991109184979,433.5407369484607,5991.711461088903,21657.486702110247,-4474.811736006194,2658.998127956773,10672.411463256825,606.4781665385027,5777.539220384339,21604.37999218923,-4476.881761600003,2666.6674373318833,10645.257560037675,333.0957240973879,5753.732105329488,21745.533567209022,-4488.007449489166,2678.2751617377116,10690.252305615672,527.6923757168238,5893.610846402648,21650.751842104946,-4472.156055534995,2674.3676165997954,10649.369614798225,604.9836141165622,5921.7384127582345,21627.43377375933,-4478.514679799805,2677.558751669732,10677.804822627424
-6404.0,13300.0,12828.0,-1269.0,-5680.0,-151.0,-6344.67778284389,13325.226193591183,12763.210431915335,-1277.9521415147499,-5677.59998394616,-122.6363652056071,-6634.28945093834,13294.035485064976,12869.20486850146,-1260.2229572709214,-5674.898550279453,-142.90962310888006,-6432.725553038437,13442.491106376541,12836.18751386364,-1285.8603569828515,-5692.672590965391,-157.99333811606377,-6240.564606071697,13202.520271523515,12867.745442423473,-1269.530393531193,-5676.381613658544,-142.82051143936104,-6437.59894766275,13367.107653332116,12798.628938858772,-1277.8605274265249,-5668.950307945356,-160.60855566745005,-6639.958765192909,13340.020911740525,12706.45568643129,-1253.9389782302944,-5677.585271197296,-148.6589653914116,-6539.075591237126,13357.255102060304,12693.228729717192,-1267.8731967664264,-5673.892101625642,-136.40765237085247,-6361.9297600389245,13326.705131184104,12964.802427007102,-1273.1737247622696,-5687.452819815257,-151.93302826337612,-6413.348782279175,13337.311449976021,12805.621419798632,-1264.2561608054784,-5663.954000794046,-156.24435592135353,-6388.221699745156,13278.8487313939,12860.951045512804,-1246.5211700324787,-5687.834314385021,-149.08898266365392,-6292.1818087277225,13106.402003242512,12988.216343231585,-1261.7638863697377,-5676.169845125741,-157.02424333531815
-5752.0,9440.0,12472.0,10613.0,-205.0,-3360.0,-5812.01746167672,9358.11098246778,12603.340842063226,10619.428188587342,-199.08672834242,-3340.002103436735,-5838.55643846099,9427.041102320542,12449.024547494673,10610.74589827902,-203.9421402335706,-3351.2375517798964,-5757.710174127902,9444.581544656616,12688.813852538124,10607.742767248268,-211.16981804167446,-3374.5318559162893,-5573.714952286643,9308.090167228193,12428.386201949741,10602.955057834628,-193.65990441312636,-3372.9372287208234,-5631.310513858113,9472.9236951765,12407.432951822062,10625.566755825292,-200.10819523129027,-3355.1065282174964,-5840.244200651067,9515.101973133631,12337.056188273065,10640.89539753101,-213.58593850617928,-3356.3452649674346,-5739.415845959333,9420.350980140218,12385.285221166223,10618.461361456952,-187.35067166249044,-3374.063286301284,-5625.1308639319195,9252.018519366758,12627.746184546257,10611.064510350114,-199.47532985902248,-3342.320435104315,-5594.077681822312,9467.23907933785,12667.235615821273,10623.187143112293,-216.78815597635335,-3373.1353544318463,-5849.279669341212,9517.618954187397,12503.21244691497,10604.690298735095,-206.53523409595982,-3373.4820394628655,-5857.467381957063,9417.574247048666,12578.99011041333,10608.507668330496,-203.47002375496885,-3361.341284422751
-2604.0,-1032.0,21540.0,8308.0,2347.0,-5825.0,-2631.017954588803,-988.8147074574368,21662.015512765258,8314.063108646804,2342.1364060270776,-5810.000983031673,-2744.9500558186087,-903.9763105420047,21663.313508884632,8295.212348248851,2351.1505305671803,-5826.306056603795,-2843.0901913334314,-1091.9076805840573,21491.88434496117,8311.66992312589,2347.22703284552,-5814.433434459775,-2852.9016435500857,-1236.6855152570404,21531.726638800214,8323.233810658834,2346.6850099898934,-5813.933006498935,-2567.9351350120587,-1066.9219483173058,21621.814063365677,8323.349802610159,2349.2180490571936,-5814.593646377592,-2518.37770669692,-999.1633351612367,21514.10224562483,8310.756816651816,2361.689496915035,-5820.191304484807,-2596.120864988808,-1096.7346852012295,21628.395556199277,8316.601387814291,2348.649815482083,-5832.953110302381,-2614.512635602191,-1065.2943283716613,21496.83492693464,8311.159110979426,2340.802800285944,-5826.391911178996,-2786.42028530283,-889.1922299806242,21526.972216978716,8339.879291703677,2341.3927693682685,-5821.168665384757,-2598.691367190708,-1045.8163027080102,21719.258350938402,8311.92667513444,2339.9479085009866,-5827.214890671166,-2672.813887115992,-895.392559188298,21787.757963261265,8316.455230893775,2351.3777806165367,-5821.304304590113
6036.0,-4856.0,18136.0,604.0,1995.0,316.0,5971.041121873429,-5002.992826492606,18179.896184965382,601.3737994226049,1979.6900706653948,311.12970129884184,6115.946087036947,-4847.585741566004,18180.480371594756,614.6510123266216,1999.3035362957419,307.79230254983236,6075.770868062864,-4713.2976163804815,18302.850970693184,605.9052529871065,1984.3317445465245,322.83179323688296,6029.739607381959,-4922.828298852868,18172.68117607039,598.0394521459428,2000.1883629856654,303.6901605107928,6080.780546900653,-4762.687571030991,18079.807493526176,605.7862079268767,2025.4757826038176,306.92158715364405,6061.053708458659,-4963.4369912296115,18169.684435249463,621.027860272122,2003.5945780081615,316.11259296934537,5933.403164798818,-4837.568806770499,18115.359896112583,605.6792604031707,1987.6336115741024,311.4127249938488,6240.266486968768,-4800.236540627561,18340.612404752,612.0239569404882,2000.2085656109582,313.4867093827672,6091.391352893159,-4850.71601411417,18084.84324578846,610.1818150693674,1992.7227348016424,304.8001594808059,6043.76937083385,-5019.375862268425,18101.91642806193,605.1387039772485,1985.6214793558522,309.1208769081595,6032.779190774654,-4699.340658755674,18072.538349623985,610.3328441826703,1991.1812855974051,316.81142460785753
-164.0,-2908.0,18032.0,-3232.0,3071.0,3677.0,-233.85444443764735,-2928.3734523613384,17974.616923226225,-3222.273694190166,3075.6099375343056,3670.1634787811945,-84.52138841327972,-2936.753766406553,18020.081472224527,-3241.996490232496,3062.199709443622,3686.17352520853,-65.18467520546606,-2896.8791048448525,18027.866505360304,-3225.019144599403,3073.4729386240483,3670.0832800091266,9.505939047285864,-2989.5999305519335,17847.312003580315,-3226.1352826275956,3080.518604473215,3678.6502750559685,-8.702042684196698,-3003.7498127343993,18079.54037624051,-3220.0673499175346,3056.4955300587226,3685.7529877293878,-223.70294823663548,-3025.3922183874984,18235.760250933294,-3229.1818091397886,3066.6837618696954,3675.9196860249535,-157.23793216444707,-3025.8437642878785,18076.516075879725,-3243.701050921205,3091.004630670633,3687.2942799790158,-153.07943328724224,-2963.119677927276,17973.582852304196,-3221.733053106533,3070.449282642343,3670.235920929537,-63.76378216459321,-2880.286847390317,18058.26521330246,-3225.318538888441,3070.144770456234,3685.9085741017707,-256.7733256433886,-2900.1333611634554,17974.72453459761,-3228.86389833676,3078.7142726519946,3685.659467600899,-256.1051673186013,-2787.096159956614,17911.04227700567,-3240.215904405831,3059.6535333134157,3679.7938337059113
-1300.0,8588.0,18316.0,-1834.0,-1086.0,3199.0,-1251.490076339037,8812.490101019124,18213.024979899295,-1845.7996463963464,-1085.6398248781147,3207.9221870376114,-1324.9271187011593,8404.330785080594,18322.245727382382,-1835.363959092914,-1083.127554097238,3205.897745647889,-1341.6492843758087,8586.452296320413,18391.57758943788,-1839.8792317098892,-1068.959524409417,3192.5320297918197,-1436.9755054541654,8624.975813864907,18377.093881730154,-1831.9495122994379,-1092.3989378822962,3186.835653864937,-1182.2597810085597,8684.546809757274,18584.485155028397,-1831.8807299709902,-1094.2805093306658,3201.2742898043175,-1357.0623450708943,8586.872332463807,18251.689116373673,-1839.8309255064187,-1070.0672349477181,3187.260584241539,-1253.1417437976845,8551.308762608469,18425.336656153475,-1834.845040334409,-1066.6059142234096,3192.7550138926836,-1361.2410739777324,8710.963820185852,18402.543509685427,-1844.214294581354,-1087.321413875948,3195.3155865927924,-1425.779964112951,8649.551169629887,18273.922994135406,-1838.1838507842176,-1077.9313637737241,3201.2254388754777,-1124.2788865262628,8723.747851658254,18328.465978874425,-1849.0389269649668,-1096.663091676923,3225.1773324203414,-1177.7676299615694,8592.647027306833,18173.96769030732,-1838.9788843391987,-1071.6759739252234,3180.8974329336206
