IMU1_AccX,IMU1_AccY,IMU1_AccZ,IMU1_GyroX,IMU1_GyroY,IMU1_GyroZ,IMU2_AccX,IMU2_AccY,IMU2_AccZ,IMU2_GyroX,IMU2_GyroY,IMU2_GyroZ,IMU3_AccX,IMU3_AccY,IMU3_AccZ,IMU3_GyroX,IMU3_GyroY,IMU3_GyroZ,IMU4_AccX,IMU4_AccY,IMU4_AccZ,IMU4_GyroX,IMU4_GyroY,IMU4_GyroZ,IMU5_AccX,IMU5_AccY,IMU5_AccZ,IMU5_GyroX,IMU5_GyroY,IMU5_GyroZ,IMU6_AccX,IMU6_AccY,IMU6_AccZ,IMU6_GyroX,IMU6_GyroY,IMU6_GyroZ,IMU7_AccX,IMU7_AccY,IMU7_AccZ,IMU7_GyroX,IMU7_GyroY,IMU7_GyroZ,IMU8_AccX,IMU8_AccY,IMU8_AccZ,IMU8_GyroX,IMU8_GyroY,IMU8_GyroZ,IMU9_AccX,IMU9_AccY,IMU9_AccZ,IMU9_GyroX,IMU9_GyroY,IMU9_GyroZ,IMU10_AccX,IMU10_AccY,IMU10_AccZ,IMU10_GyroX,IMU10_GyroY,IMU10_GyroZ,IMU11_AccX,IMU11_AccY,IMU11_AccZ,IMU11_GyroX,IMU11_GyroY,IMU11_GyroZ,IMU12_AccX,IMU12_AccY,IMU12_AccZ,IMU12_GyroX,IMU12_GyroY,IMU12_GyroZ
16660.0,-3488.0,3216.0,8135.0,2175.0,1480.0,17185.729196182187,-4500.963362552488,2877.290738270861,8133.130856855084,2176.9677814769902,1476.1465918431907,16709.505307034142,-2389.329871181726,3074.991517637353,8127.7776969330735,2181.225551151407,1476.4075826409128,17031.57339803868,-3975.8359797015173,3009.4365130693764,8147.083082216383,2157.668677936946,1489.8530312366738,17290.24177635493,-3389.647324512374,3585.3778047803326,8125.590521869585,2163.1576781941967,1481.0033534022161,15942.286412212252,-3819.768307065622,2641.9017754077427,8134.981733020257,2168.653539954813,1479.9413756997587,16437.28937958551,-3741.6865497053873,2829.5474634316047,8126.609947540474,2186.8608030158425,1496.5047469753254,17602.6972106417,-3782.6853609099794,3290.0659331454,8120.048675083436,2163.8480970995097,1480.6887253723505,16573.362222605,-4485.055783735846,3034.852871509282,8132.175710201449,2163.945210652887,1488.7817913434658,17161.106138781666,-4349.371818897764,3857.3233726214808,8146.360312864273,2164.600737949392,1485.4964656986554,16999.4721803605,-2531.5018206117284,3155.611097898188,8124.596391489524,2179.922589969025,1482.8533747978433,16437.59981620157,-3534.4643993598797,3370.179875034697,8147.343116281775,2164.1464797944545,1467.487049736672
16444.0,-3032.0,2888.0,7141.0,2546.0,1348.0,16603.212295749265,-3038.9800459451585,3353.971174670897,7139.773424387118,2529.5930362504,1340.500217310196,16423.73534567902,-2724.681045701894,2412.049733614852,7146.168206128364,2538.498761369712,1346.3850362791125,16133.394316531303,-3237.2276295989504,2717.2333680562942,7133.2909533571765,2543.606578041131,1354.9925345810282,16504.2318212198,-2582.9035778455846,2164.727916026622,7142.377654654479,2536.9574341306447,1353.4662671415133,16237.376541170015,-2349.1767962795525,3861.1572405934867,7140.3225127073365,2548.72001532035,1345.4538696010159,16378.681598558776,-2923.6546276501113,2135.880632130052,7145.327123299653,2558.8139155554454,1350.1343469127173,16083.005527094816,-2967.140600883069,3117.9045412793457,7156.366409392022,2528.211838119921,1373.4666171078022,15981.035556829193,-1735.4194407822165,3619.013146472911,7112.3662100240745,2549.0725135972625,1354.98844285559,16118.299775225405,-3088.8636654299044,3722.5527306040985,7139.578971782577,2541.71909067021,1349.1382852278498,16223.248120594451,-3454.8190771076365,2895.479705736149,7153.093091841042,2540.051042576055,1330.65252678079,16804.084351432986,-2584.221387721276,3642.937873682568,7141.105995032571,2551.1978383243695,1341.637705953018
16224.0,-2556.0,2880.0,5457.0,3992.0,1915.0,16121.08090452568,-2355.911387951846,2520.4472421141672,5440.759591392905,3999.9890848221717,1911.0878261998964,16621.570681124955,-2623.330708264697,2942.332663064347,5448.011565176686,3974.564220970435,1907.2158943350412,16076.466280595603,-2038.0336227803202,3186.5641391380195,5435.736304930374,3983.1608251501266,1912.7973757296918,16752.554207616675,-3189.5356843285854,2694.831041389902,5434.694125452812,3993.169314176741,1930.2259409834787,15369.88694672133,-2503.532487049802,2288.0208992211587,5435.655316410556,3991.7092769570436,1917.327683075284,15815.085606396498,-2778.130108111153,2286.7378457132186,5461.56769305257,3992.4936480001684,1911.7468685342515,16151.874910680684,-3260.500770647323,3017.5647642003587,5448.502534463181,3977.21511560624,1910.1002469107948,16666.69736473797,-2977.8729924602644,2862.7217682564897,5457.646651373044,3998.790162643693,1900.285295724324,15911.519374124442,-2685.6673102529776,3132.4352355860915,5448.636101223947,3989.1237845644664,1901.0480471924595,15847.045654184638,-2478.496868666421,2973.5863094857887,5456.33692167637,3981.835539144593,1897.8959503096992,16427.134814208344,-1909.772664605739,2881.395617120328,5459.54750610768,3970.182804552311,1902.7652362788347
15960.0,-2392.0,2744.0,2952.0,4888.0,2076.0,15969.500175432331,-2293.340625875739,2261.8033707115546,2969.283739809733,4902.298834556065,2068.450453420955,16634.566434205386,-2619.7022668527816,2562.252962198231,2947.8236652106757,4904.020517893042,2063.116341840683,15606.227002525504,-1925.1689249502883,3345.5791488211535,2960.298589378783,4895.692025764554,2074.335108457804,15249.822675243697,-2670.288142162904,2469.1020574904287,2947.6335082258825,4901.671469123848,2087.749653644517,16016.616811737098,-2689.1152924026537,2232.1678488781413,2939.3935000547945,4873.462140006439,2072.84765231502,16359.962497849821,-2992.758799610049,2505.3219789997925,2954.7378434330226,4877.527078748763,2073.9958729851537,16180.880915976513,-2343.18354360343,2104.6793351062192,2943.0741586678123,4883.758785609362,2074.6565069580433,16033.964617702171,-3410.326199019803,2792.7663468525725,2955.5309517232513,4877.695806315916,2082.6497644172364,15500.953502635552,-2410.7040646390533,2871.0295996182226,2940.1025147060946,4881.984454313341,2085.0104944668637,16076.120583832613,-1719.1508677788825,3454.9820158346542,2946.047739934985,4880.583221958611,2067.023707373183,16791.088779330978,-1132.0874125707232,2516.886561581436,2962.8838610387884,4883.824683553731,2071.877393143535
15892.0,-2116.0,2620.0,-358.0,5736.0,2074.0,15508.244167348457,-2545.617052362789,2075.442291604528,-355.5887386929627,5729.849686778108,2072.564217592014,16354.1883505962,-1951.7517579550577,2794.5417834696004,-361.1858936924071,5733.145786412749,2079.7271952498218,16285.604191234877,-2479.5137646137555,2755.3028949722657,-375.44021165795664,5754.374246599828,2079.9052276190523,15511.444908102072,-1923.1359630563247,2232.327976040975,-359.07764279207106,5730.24948995143,2056.3843126670045,15558.316326039607,-1803.0079421353375,2659.8333255767748,-374.19669505338925,5748.438367435406,2081.975301195128,16970.363134346382,-2393.373740374657,1864.9540343803574,-379.24995465619577,5744.578003693224,2073.0301820483846,15408.72387280283,-1457.5815318331042,2435.7653292031173,-370.9887601903222,5747.183900427919,2081.053171066599,15748.305848416763,-2058.542257793915,3302.0125508162178,-365.52004945826394,5742.826779789135,2074.977966831671,15832.660909894214,-1900.7209592613635,2777.6059760294165,-366.5425887261183,5732.566628369755,2071.7303638101553,15909.65897964775,-1715.993005621283,2814.9809119409897,-349.6842835936249,5740.902016706651,2076.294854124123,15304.21659587575,-2078.2738531498603,2686.18665497743,-356.9895594153733,5728.107020001621,2072.3038432157045
15948.0,-2128.0,2444.0,-3806.0,6431.0,2161.0,16366.184333450254,-3622.7787366031575,2957.0217928816874,-3799.693814757045,6411.00613852371,2141.8323789779033,16174.93884688045,-1899.3524348033252,2030.8727688237132,-3805.797784743138,6435.328069897993,2152.3057820246227,15352.652434514377,-2495.1113564258667,2550.502266258398,-3806.3148758471607,6447.554911000354,2164.707443870918,16847.787197674494,-1906.272883748452,2247.367384928178,-3807.4447849388316,6439.142217696384,2148.208373131026,16260.320711191836,-2378.5810583434204,1903.4290612840507,-3801.4771839148775,6426.402680434982,2170.2262804048114,16209.263769673966,-2194.6817267087235,2566.2772837210573,-3806.3379528407436,6452.6763258881465,2163.3136265040084,16171.477775780846,-2599.317179395558,2520.02942882679,-3821.0275842158853,6412.354390319937,2143.9222564991796,15910.560361062258,-2319.9626893569025,2338.831255434265,-3798.5823730934358,6439.122241761331,2167.8224064304663,16377.608062831147,-1808.298113417996,2586.9534634906295,-3812.1667803779605,6424.404437516583,2145.778841978119,16420.02401377614,-1312.1241786058324,2487.327792982488,-3808.5515283129093,6432.714817479063,2146.9104309352088,15483.203136672486,-1862.4857442496834,2723.1369019366957,-3831.154438360536,6427.492869055299,2153.723385993655
15856.0,-2300.0,2276.0,-6901.0,6732.0,1389.0,15681.44879162836,-1057.0021128967287,2703.277320350514,-6906.476736706087,6723.14502545474,1368.9464336646752,15915.0501686475,-2548.2540783968825,2671.3237178718628,-6896.1997263082185,6737.565703238206,1397.3606278535392,16006.706865628583,-3113.791120915299,946.7290750969821,-6908.549708128748,6748.060802538414,1382.7567421472274,15271.589492671093,-1345.3882360022844,1767.49116231752,-6900.39828235981,6733.433741907952,1390.8067302430863,16047.88418484642,-2573.5795697637473,2594.5766126841854,-6902.402221875142,6732.855265433404,1383.0670711962111,15697.5869761983,-1760.0581372251938,2239.2753508232986,-6891.247407903578,6732.225454990471,1399.117710780238,16052.008253743776,-2373.2835239423403,2441.7286772186167,-6918.080743836065,6715.450149692855,1389.3361195532204,15746.977613335728,-1818.990989316544,2660.668144753903,-6885.619580796939,6734.103055898078,1390.1143392330698,16133.011822335728,-2735.786682014612,2335.9449776949973,-6887.945242033017,6728.254958369081,1377.7971957953123,16234.194484591615,-2107.5716951325285,3528.2153424075286,-6905.084822879873,6718.2899019429115,1375.405752944896,16127.01117175077,-2662.0167158934037,2574.50875629431,-6917.460306863549,6734.847926527621,1400.0467394634807
15828.0,-2016.0,2128.0,-10598.0,6579.0,1438.0,15329.099048738048,-2128.350929614697,2063.11344665875,-10601.612487972507,6578.995728292069,1438.082111208733,15517.630637729966,-2866.2052302149036,2144.76113781799,-10596.444439438506,6570.259115424485,1426.4691508412966,15933.18972894759,-1480.6979991691874,2155.747992543072,-10603.54099511356,6605.970467597125,1452.6330622598664,15276.255096764118,-1072.2504506648943,1443.0256851705844,-10596.878227021849,6575.143454463491,1439.2417982132856,15810.270409421746,-2011.1292665432463,2413.5788207685027,-10635.278409803695,6567.220612396121,1439.5005574901354,16119.899683234067,-1919.4837981487221,2121.4315871452914,-10587.292381604419,6584.460995733902,1435.9636579104367,15808.173323735837,-2023.5044861007232,2110.5931455782575,-10604.855465996381,6589.965816559169,1440.3458519972376,16341.40063166511,-1780.3471438506995,1348.9192955424169,-10612.23067052939,6595.99080021456,1447.8942710789586,16058.070404389684,-1683.570146177633,2180.227135853832,-10595.727146307203,6567.378250984953,1426.2892355501265,16020.452543667861,-2472.20600480745,2603.3342658865568,-10593.281390367052,6577.242472739821,1432.8907913088428,15356.706273879696,-2238.0973439055965,1452.4453557212973,-10588.452649027056,6574.095512830434,1446.6077241795826
16492.0,-2496.0,1540.0,-13656.0,7038.0,1532.0,16049.064816567572,-2658.8385431969764,1739.6736584866317,-13672.263800459894,7060.823268552626,1522.1720698365093,16395.687307868215,-3199.451679422194,580.2303353356315,-13668.10693434486,7026.194153631545,1519.3396784095871,15791.781425920646,-2186.4621956551855,1700.5455155555624,-13657.759498986079,7029.343893443811,1524.2547806678265,16503.766375246614,-1747.0879111451045,1678.2486143653932,-13665.045280633572,7019.882203902112,1538.2865858199268,16901.467415790656,-2226.9007950881246,1417.274580335,-13654.993860812201,7051.271943090952,1542.6171953621035,15775.624124065444,-1989.7314336191655,774.2156997723738,-13645.147113402354,7030.639729150156,1531.5861361286006,16842.892676286563,-2298.6659831000925,2091.6487515982,-13643.877713816997,7051.744627001374,1533.540222936285,16123.86711043317,-2567.9018501459122,1804.0088707092673,-13675.185493427847,7031.024162487636,1520.7469414255736,15815.230708306739,-2900.4072663341167,1535.4197384559372,-13648.410168587525,7037.956851018185,1531.7332945928272,16675.105943862698,-3678.79954211971,1980.0683166828221,-13665.741171451828,7058.514076066323,1537.129504542767,17108.474422062955,-3414.8718411136333,964.4151267711479,-13650.905894818092,7025.137675585838,1535.1482180210405
17980.0,-2868.0,1304.0,-15092.0,7155.0,-102.0,17953.64534106138,-3421.9135215762335,1297.9611102041076,-15097.982569437483,7166.9180473490105,-100.46267406660006,17534.02305671814,-1955.0846723829845,1747.286610126991,-15079.386657167743,7158.006836377183,-119.98771781360213,17624.266900234743,-2370.1867274015685,1102.3508668160555,-15090.30371254178,7151.238725680266,-86.97667976533123,17127.302378236687,-3303.7226601848342,1578.7749013024,-15096.075756962462,7161.325000093126,-98.08518384754292,17169.30314558135,-3414.2197679288847,778.8921421360418,-15082.714436182512,7159.415231683259,-109.77815223242757,18713.81703811681,-2170.5273848602387,1067.5233382558858,-15078.159937249377,7146.063842346866,-92.05257144521343,16815.361898132596,-3780.4758014078916,748.0814324620092,-15099.635205021501,7156.38458761833,-98.20666474153352,18211.858339890015,-2619.123772308386,108.39460089075283,-15092.25681010565,7159.794062530491,-105.98749902465036,18357.469923977653,-3073.279384488773,416.5037029344801,-15072.520980806099,7167.938500268866,-115.37318469661984,18017.781487434935,-2587.181737442858,1046.2001418273405,-15086.514320135684,7143.003443979929,-110.4154531993786,18097.543530493807,-3203.007761942096,945.9352651497995,-15074.682212198762,7154.556254193553,-93.62958161887767
19304.0,-2976.0,1052.0,-16473.0,7298.0,-402.0,19339.466215162316,-2810.775564329288,1276.0945417226835,-16472.1181480984,7304.069746731218,-413.8922983470966,19845.93930673258,-3448.909172124177,934.596374594494,-16461.412965389412,7306.671072933617,-397.2063650043085,19963.714869390413,-3554.7521272342906,440.5557218856892,-16453.05710115522,7279.334244478442,-419.1378199839621,19816.26830567914,-2537.843377609722,528.830394254876,-16455.03445320698,7306.010865479722,-407.01005079351347,18465.13325978218,-3114.108541965998,-49.21007389570627,-16467.783809174678,7297.593791409101,-391.4629100322356,19920.68248994109,-3890.3734996563367,676.3250440172775,-16461.103113654095,7272.295291873998,-402.17005688236003,19055.416285330848,-3460.0170223574755,1665.121622757245,-16474.628155508377,7310.608952891805,-423.42110858719366,19752.51957840632,-3662.9891232737114,1846.0002277108683,-16477.416736612355,7286.777261231697,-394.5148680697017,19462.860733721755,-2866.1746141608855,990.5575147469203,-16477.93125267956,7288.021968264635,-381.44034773162673,19140.233244847073,-2703.3629705144344,948.5377605341213,-16448.355970428984,7312.640088077859,-398.6469610640908,19317.10972962598,-2881.8171510531574,597.8953135144357,-16466.813832336567,7287.6379353612965,-404.4708528765696
18088.0,-3508.0,756.0,-16501.0,6870.0,217.0,17660.429374103336,-3785.4535764547322,700.300137274263,-16508.183476332306,6863.733666031984,222.06263713381563,19464.60596583299,-3692.4348734614214,1031.3178268325487,-16498.227650575114,6865.506620376596,208.56111109673017,17580.920252393502,-3459.742447656867,640.8454236869674,-16483.090094952364,6867.022940131082,201.84280613067352,18072.585419956144,-2923.4657454530957,636.1977790626655,-16498.002714635975,6875.908363946442,226.99824361984318,18220.351930514742,-4235.395065520231,108.84790337862728,-16496.249778098427,6883.659204323903,225.7935589176146,18324.640636940363,-3298.08964370142,760.0178297628246,-16490.60341789471,6869.101351740941,225.2061200771465,17696.9273291139,-4127.809769203669,154.2407065423763,-16490.28395580038,6878.719203860418,224.38651293989855,18124.906999060964,-3982.095272780615,423.398701108097,-16510.61852184844,6878.65990932984,221.9272347122525,17358.009462683924,-2080.7519994449167,520.2698902043608,-16505.10845598689,6856.876649580937,230.2251551589931,18404.07788401116,-3662.116346692314,745.3640653977275,-16491.2793208699,6864.222830491883,216.05233733159866,18279.709014474734,-3577.530498579126,566.1056795998571,-16513.119819655356,6872.8029467752285,205.14113093303413
16056.0,-4292.0,1008.0,-14989.0,6223.0,229.0,14906.55846419783,-5016.656046580947,943.3920298214393,-14986.310505028743,6219.83084647039,225.0737784579269,15872.33354978585,-4279.5331155565445,573.2429169977734,-14997.289917082437,6218.82572907647,238.17709556278646,16286.144123770348,-5216.407422592478,1150.3463114466051,-14995.406383742997,6229.562826747603,245.93160981865887,15617.898281794529,-4590.351868128032,1251.7424953225,-14983.827150433008,6212.8417540636765,235.07971411774486,15724.806632192773,-4512.800104276537,1110.0078414265408,-14995.493124209439,6236.887400340607,220.26446685363143,16001.301751951556,-4280.4170593197705,983.9205514406466,-15000.125488415559,6226.146880942463,226.28899227343507,16310.504423772489,-4695.369879098046,1745.963336459961,-15000.316131229389,6227.014485676275,232.35543880395406,14630.161667898108,-4639.007422276861,336.15329232436716,-14983.003005571343,6205.37498022194,232.21738541985587,16940.155707186856,-4434.116756448335,-245.13426029255425,-14986.46025793866,6231.935921958381,234.17833470034148,15031.685749125012,-4165.983464236044,803.2443601326787,-14990.846595980402,6224.165070329422,235.75468514471666,15842.65473886538,-5066.880793893582,1302.9327435377854,-14997.261571040095,6236.381804729716,224.68897383004028
14520.0,-3648.0,1360.0,-12132.0,4844.0,-910.0,15539.936590641082,-4367.600566549621,1385.5061147468773,-12148.199812613231,4822.283093721361,-922.0050176390073,15612.469581147552,-3466.347177850943,359.79578145634673,-12110.487999754809,4832.871397820194,-929.1766709053333,14871.702627814313,-3055.1241909963906,1449.3275418390183,-12146.788376642953,4854.696396715918,-892.8731004840487,14560.759346250068,-3551.539760934202,1498.268143054543,-12135.23118827946,4825.645718707904,-895.8511950179663,14781.030902941371,-3725.576419964286,1075.213001248137,-12120.953403153371,4861.216766490967,-921.5941451031593,14579.338875583915,-3540.6198030916626,1455.0715954071113,-12122.20708718853,4839.143768443703,-905.4362947158354,14537.679844400365,-3312.3544348353034,894.1351559292036,-12146.80590350665,4830.822625852944,-912.7745679410722,14912.037680536787,-3380.8564861528876,638.0473680021563,-12140.313373583387,4844.046849069993,-919.4768491220462,14679.731739840661,-3834.3907323407466,190.7954952933785,-12123.752106044218,4837.910471509102,-894.961457373155,14400.699732584742,-3275.748682912892,970.0226038194826,-12130.456761928312,4839.805574507618,-909.8054404868384,14273.579671056355,-3542.9393698940075,581.8365168656371,-12137.71849212234,4850.590578258132,-914.5004862035286
13920.0,-4144.0,1708.0,-8581.0,3252.0,-61.0,14017.878094707688,-2969.235250807655,3068.5295774133024,-8604.77755134761,3240.0884806569657,-80.70394414960812,14111.44616214427,-4725.943192561293,2119.356857959114,-8596.401302384642,3235.7829490341956,-60.71074522064925,15149.719672252264,-4186.220859673948,1558.1577932581474,-8591.647664872356,3245.952783858032,-70.90380705655062,14138.799088367252,-3979.826000806085,2105.1219512525868,-8572.93520576214,3247.46574916648,-74.87230447581477,13542.941635424935,-3625.637895686264,1606.73441404805,-8592.295080162654,3234.913949045006,-75.87412668344925,14214.97140547052,-3903.1556724885654,183.97449670014998,-8598.835780737063,3251.8224104574515,-55.45352869972425,13247.533506395925,-3834.2325655156983,1712.8591925570756,-8592.511381030752,3234.440409814874,-62.06598783220591,14102.639699650917,-4330.432523602925,1304.8757236553658,-8563.842303522768,3236.101533788564,-73.17214480196108,13784.452667060708,-4239.763995975144,2047.2477229035694,-8575.58270317146,3258.640551398187,-51.40679630028813,13778.78397808566,-3972.0900971455967,1848.7102561830043,-8586.793948409066,3235.61865523726,-58.50019675077349,13426.178530161662,-2884.9607156683805,1250.9719826125806,-8575.814887491193,3245.151878153031,-47.98963486010406
14048.0,-4376.0,1824.0,-3777.0,1984.0,1337.0,13826.435759741453,-4220.89793414019,2311.3556030508125,-3780.7762744799747,1978.9884968769857,1345.5837517533364,14299.926659011375,-4429.922196362759,1970.9869464644746,-3776.3724405574435,1982.1473506512652,1333.456841248036,13449.57871813769,-4592.767725194089,1678.7061417185273,-3762.4656872048668,1981.5766491658176,1349.604241196574,13071.820259293778,-4444.089657297903,2328.485106414065,-3804.0842746782796,1993.6742289586014,1345.510430567721,13260.7080174723,-4532.747398173651,1847.3096483028983,-3782.9738260136014,1994.9135700875827,1343.2204787915618,14077.996427826487,-4710.533062510373,1981.0433657892706,-3774.02401578745,1985.527297443511,1344.936721800701,14015.257476147666,-4030.8222055178053,2356.05950550077,-3807.464685002257,1970.1243274675855,1368.242082538634,13115.472219562616,-5490.579909715617,2886.629054649213,-3774.1055350871675,1978.211614798889,1330.577000240769,14369.31605018769,-4322.823003558066,2312.112567282937,-3777.884117607283,1960.3122030535926,1331.7501387668706,13472.068892848009,-3920.3370701760814,2248.912479813839,-3786.079078406508,1981.0320856269493,1328.0498107216322,14111.714372106773,-4055.638444594448,564.1949524433028,-3787.696382037829,1993.2734212094203,1333.1658028013042
14616.0,-4144.0,1752.0,1192.0,1344.0,1633.0,14541.4364392561,-3683.2268434191633,2520.5818713295985,1191.2166327717557,1340.3840249431719,1628.9480913970747,14271.828268731471,-4142.181279269176,2315.85371860467,1200.8736662095573,1344.2770351454496,1617.6636666859895,14667.889961504432,-4689.3723563952535,2424.4010282535755,1189.1492400354775,1342.0120280659908,1636.5318934572472,14573.721877419495,-4000.8181550090985,1631.7359647922378,1178.1469104617001,1333.2160658553476,1645.1090595728097,14094.010840732331,-3988.3426910759495,1917.0204251334894,1199.400329354845,1346.6271957328788,1633.1146076069329,14352.827234143133,-4032.9237864944375,1811.505929083604,1195.4761821506,1348.929962843772,1639.9974142376223,15050.478772658793,-4632.372123580036,1820.1025928765794,1201.0567756390278,1340.125382596651,1628.8728925330292,15185.167214713843,-3147.430203136332,1818.2868505360266,1184.5155563631122,1343.8703130067336,1630.1762902569412,14798.075600543416,-3604.037664612189,1868.2435681680583,1192.9676068029703,1356.0939419107847,1653.4611120869577,13738.432839871588,-4167.403109052139,928.4365082961513,1193.200978525906,1346.9977973352761,1648.3977395350275,13797.123181708295,-4651.989337644336,1312.5170074605876,1192.500682497641,1351.3528184726567,1634.7013901377659
14752.0,-3728.0,1772.0,5009.0,1145.0,1214.0,15065.759680172754,-3347.104943572493,1606.1235094246297,5017.19726791863,1143.1834331458151,1209.3050721545037,14323.390653651575,-3234.387358582082,1814.1687018031075,5029.119713417834,1156.6997910782975,1212.0899171586875,15131.115321509154,-3642.048299909515,2313.0205622693647,5005.582699857248,1150.673539626698,1212.4774976854594,14314.344015708037,-4118.031778710855,1979.8610293812317,5006.2887011336925,1132.2204638895562,1217.920625736602,15285.705531865216,-3809.689953463985,1138.2012340922342,5009.180832948285,1145.0776704892266,1222.3454539080733,13904.507881510997,-4447.609230928021,1800.247169749702,5020.541241395671,1162.4962119196136,1232.9659731630336,15298.864029363232,-4377.748027284432,1659.294151466256,5008.525259370784,1130.1298447734673,1202.3805684742379,14719.990373084278,-4698.073658617579,824.8146321625774,5008.034629476468,1144.1498731539486,1210.5406896818395,13760.641063379891,-3921.2264419219887,1150.0069368530499,5007.812778611316,1164.6531201694213,1209.826124014758,14773.40486021258,-3676.3705395072125,1187.9089116567334,5011.255825212777,1143.4220151673248,1206.4781963090024,14221.402879104966,-3836.8534655142603,1436.746258848415,5008.84598992128,1142.7720102590981,1216.8535937667689
14808.0,-3336.0,1908.0,7515.0,970.0,524.0,14791.135945722004,-3050.1034618257736,1466.0531781112652,7515.336690785365,973.1138438799193,529.8931616520044,15157.73664474793,-3552.5490100358816,1375.8053570789116,7538.3308793800625,964.3845692543259,534.5595070662097,14784.038573846334,-4453.172926331798,1499.8986590678544,7523.157549606346,965.4550255090676,526.5414866553417,15957.096332737503,-3471.418713988692,2531.870425898057,7528.014639655378,965.1172682106059,525.3223218364553,15129.280361609348,-3243.1896317394835,1735.6970131279338,7521.185611217405,978.1116754715061,534.1779373450614,14391.057062373442,-2961.360676897193,863.2309986665107,7513.253340657011,974.8378597555616,515.7386853055958,13996.87265426367,-3296.390590824733,1220.5217833144973,7516.091267761048,963.8323944583684,538.4850871913255,14686.426417666335,-3035.825775910348,1330.6197018715382,7512.261872306179,967.286721297119,511.1384795832259,14733.748441395364,-3205.616478673845,2157.242312416803,7510.675637693085,967.977219486001,516.5002650224862,15055.644754968913,-3372.991419916969,1761.7839723245916,7514.756822885363,971.6263220536632,504.734361537343,13772.363048963462,-2966.7780539466944,2122.425868607078,7520.051114663947,972.9333078923494,511.349322024748
14488.0,-2532.0,2220.0,8491.0,717.0,3.0,13666.696038673927,-2233.770123025969,2157.5879717681023,8509.146089113745,738.5508261258491,-15.41030230688171,14518.966032325166,-2000.524334000959,1950.5348538524186,8481.563913819755,735.0917028966475,7.3677119442122745,13980.464226072405,-2422.975928418511,2351.3994279225712,8492.087571543712,722.4047069122329,9.525414444445637,15101.435740647976,-2670.8088758773265,2466.9078825228107,8504.203563253486,714.5610760292728,7.968956033738939,13734.435124873875,-2380.939343089848,3549.274789653173,8479.36347564444,713.7336368175542,-4.094129673003355,14967.479484973624,-1479.884243883238,2060.3404133597537,8500.640379520988,701.1286202329777,-0.5561181332722902,14145.939917446569,-2845.493154111195,1963.510172491753,8500.312601229003,724.7002746543031,6.590584028891591,14762.453499492243,-2227.3064149086404,2127.3137488917378,8494.954706600423,724.0119290119741,38.66172478387659,14241.147670057984,-2357.622399562984,2964.3477801079034,8492.010228892019,719.6706168353202,-23.15091887459972,14048.087348267763,-3043.509828253287,2245.0246622009468,8494.43724248961,711.647619862352,8.4180518179691,14223.651425461629,-2882.821244611901,2079.739200578068,8506.243381277194,722.7773669426826,-11.210762720313861
13924.0,-2072.0,2472.0,8143.0,273.0,-373.0,13877.504252353983,-2518.788792759019,1773.8372198515847,8136.4385435766235,273.2591576837145,-362.84162632851974,14027.008858035113,-2213.509368011214,1325.5271015624394,8146.905107334508,270.40883502379296,-380.2554271659801,14166.15995582546,-3049.4464728494886,2919.659072072399,8142.00085891151,255.54282588725425,-369.60983956621226,13201.260042317359,-1348.4474723358117,2372.3019093067473,8160.728023514552,282.2259664741441,-349.6209473562514,13735.444175950019,-1939.0494936464675,2460.4632149300146,8136.487389714017,281.9745344211347,-379.4307577398396,14620.275380592866,-2339.049542488698,2420.3004885491086,8145.109492604818,267.9569705197668,-360.0246407991566,13378.0045190763,-2682.5825749669957,2443.5706469227935,8154.307348780178,277.69374882343766,-396.77753961139365,13802.342153403946,-1044.4094512343224,2216.680877901278,8150.607576030551,279.5862289344145,-379.6548149517754,14025.534096662488,-2296.8358947901265,3007.4333462972013,8154.523588722605,270.14143874727995,-379.30765789651423,15066.79658603506,-1823.1549151188412,2321.7276695660275,8136.901089242497,258.6092657895404,-375.05045689068334,14486.917173265861,-2303.3103435467615,2121.479161359102,8144.582792224399,280.1761575065293,-369.51023858917785
13580.0,-1852.0,2476.0,6782.0,-64.0,-673.0,13133.248374454137,-1071.4991184132057,3100.7614523883212,6780.638789011854,-61.56454836826636,-677.4612634825193,13154.775628262572,-1936.9857690687084,3208.0727368477396,6785.274401995325,-67.9887314891084,-662.8854814419052,13874.787078604088,-2137.9956244420428,2722.3540677002297,6787.565023409785,-66.87437927594193,-681.1018210940917,13958.968927218348,-2210.6514915366743,3032.091098060977,6791.963789098999,-75.8864677363434,-665.267807306065,13556.970604492872,-1734.4898908784594,2669.3448721082077,6785.784094612944,-71.30853201875956,-676.9757718759414,13207.544110495952,-2293.7753879608745,1757.9334879070016,6778.521549681129,-83.5413403506193,-675.1888669368576,13508.420392072576,-2034.6863308590607,2702.668993005854,6779.290916343811,-76.07861110822935,-683.4059850723743,13833.687971502352,-2289.708664798734,2416.1632087280946,6767.801918695911,-55.708850882242615,-681.6571745787946,13506.73899312167,-1992.0802908870903,2413.1914043277247,6801.150392095377,-81.88435335834443,-687.8079203717804,14239.587384317412,-1837.3053572832039,2618.373287947095,6785.540557308361,-75.20544790758086,-665.07499503314,14027.027293355164,-663.7176256686225,2498.8893300529476,6771.108239776674,-93.28680549970139,-661.5124323065279
13460.0,-1564.0,2484.0,4975.0,69.0,-989.0,14136.31444882017,-1086.8916206467575,2974.851023322777,4982.770842689893,55.25228975489586,-997.6880092429174,13478.353298419606,-2011.1333565210198,1836.6869217625494,4951.117232512649,54.16339537787621,-991.048244468562,13541.15354892909,-2137.9405965713886,2483.2057756370914,4973.579659127607,58.22575279078516,-982.1849787873605,13754.429948817677,-1100.4377946180728,1536.7555546503995,4965.630279794538,58.393127315990746,-999.4585467038582,13761.804282887611,-962.0545935374682,2308.298159722854,4961.203161797162,74.83711076043765,-997.6365678211006,13398.432903105246,-1840.4794316013176,2525.2646110286955,4985.746738804322,68.57142193156244,-994.2863193538798,12971.445202521681,-1176.4131404007485,2638.9871114269727,4973.246764133073,80.9162498713033,-984.1948249694456,13463.153022793347,-1503.662689867055,2532.561464578551,4975.158684636546,57.62791414809858,-999.4596255094747,13819.958793078298,-2244.9277095701405,2859.2076614498737,4991.176373935707,64.45932483552788,-993.1459953836118,13457.061712330229,-1617.3514406346346,1794.0383928647811,4970.673719780922,54.84410180990797,-974.3390347668409,13040.410082904555,-1659.3030512262285,2908.063290493635,4961.775018187251,77.54173347896837,-999.7324113872362
13416.0,-2192.0,2388.0,3370.0,141.0,-512.0,13500.516642661118,-2459.717193273944,2301.329578208453,3378.1861552573455,158.77616393207367,-513.7964673570181,14306.346695974178,-2685.6068729682133,2981.5240842116764,3378.131324035122,151.77517653510426,-511.86963153427894,13737.162055119388,-2396.4317440529917,2823.3350182418467,3375.9382096958293,127.2711830950959,-508.9764072357413,13282.805175735568,-2106.395917782963,2829.179315135492,3359.7257219128164,141.664460851486,-506.8193941178864,13032.248049668231,-1756.725107939112,2978.8160993688543,3375.7635467056866,154.31107673017542,-515.4666549765047,12816.767498987994,-1592.7960527785606,1979.3695619130356,3383.279261721047,144.66440425467763,-515.5799172253035,14061.711137019376,-2370.703457693838,3005.2553950790016,3355.5276110914506,145.9018757668859,-528.3977647157109,14067.984546312728,-2493.8486396378457,2806.332377726971,3375.804710861397,122.58724091678914,-527.7025116262757,13567.128375567294,-1858.4359946658471,2435.750392909659,3386.2014146341976,136.81930799806628,-504.96825543422375,13701.502110333871,-2261.512962657674,3202.2000842121915,3355.2223903276326,148.0383954097612,-519.4028691042553,12417.51816553023,-1805.5764981545908,1987.5692442320167,3382.1566880816863,128.3944099737029,-530.6095454471974
14044.0,-2616.0,2352.0,2509.0,411.0,-804.0,13874.192992396176,-2602.3003607511914,2037.9481262819227,2501.99894202468,414.10138746498745,-802.5714798287959,14914.354824897691,-2897.2885851519213,2873.489433932704,2512.4120429337213,410.9659836803921,-794.0238297009143,14146.818559059237,-2413.394587206601,1507.6671917553367,2514.082075347793,414.7914980160874,-805.2582582024083,14147.455357626219,-2489.517307503718,1772.7721268696687,2516.4374360641827,393.7443237115837,-798.2665891441284,13607.73001488534,-1673.0267791462911,2670.7737581298024,2505.428829038021,409.7920673297084,-811.2721930226587,14344.886466207445,-2480.0935187997266,2465.6408098801617,2512.9913709314037,411.7186399782534,-807.9004566168996,14063.433387032412,-2724.799341104237,2410.561383651191,2518.0767547061587,413.53192118019524,-818.2369132733751,14469.889579998395,-2671.2928240997066,3803.5303443151915,2501.5961326418683,417.2739045064766,-812.0288755612381,13979.99813910133,-3441.2610247637485,3261.1925227291254,2521.7939819170074,415.3576159157889,-799.9583156517107,14123.19496013198,-3096.996871010641,1866.6164283162298,2509.00404747342,402.71936509177954,-787.6287925227173,13972.70492087651,-2976.045453712858,2339.5639236410702,2488.0924111471572,409.25805093501674,-813.3352707583015
16148.0,-2544.0,1552.0,822.0,2511.0,-1309.0,16186.786213073041,-2605.3847138367923,690.8026891859258,814.3079201847939,2497.316323355392,-1310.5411472984113,16248.807580117042,-2825.6414415715553,2396.0267184118684,826.6720842746527,2507.8308013606734,-1321.036565848574,16048.64954328169,-1693.0681441001002,1754.5797943427986,811.949948179927,2506.5396635974557,-1316.0291834606621,15797.760894609708,-2052.553667380681,1169.215098175626,826.0128465588379,2525.665127681867,-1300.4779495764237,16356.9594551759,-1136.015726464494,1654.2377949780155,818.7445906137956,2506.574187688594,-1309.0323760362467,16427.054450023104,-2859.713440051558,2045.8345923104473,829.6108920660384,2500.205363970948,-1302.3969436616683,16129.957298574267,-1988.3340835249737,2186.6388268578453,808.5619331179188,2507.7673843875223,-1311.6754956928198,16315.064040971063,-2359.3233620095825,2185.2650146774085,802.8072981052655,2502.5831370003007,-1299.872311823202,16235.58010332421,-2251.1093860185765,1570.4403491690832,828.2222144916317,2511.2155484590658,-1315.9791092980436,15317.424103674866,-2766.9381853237205,2107.0957287695023,832.4615173043073,2496.4722699889085,-1293.7780050976003,16519.80019242867,-3092.2815974502,1413.6982909365124,829.5748457108242,2529.1885312961526,-1327.2592160842169
18184.0,-3284.0,4020.0,-164.0,6170.0,486.0,17839.644329091934,-3333.5141705188466,4552.779172227246,-177.27489862230155,6154.354845542884,500.6524766858844,18506.963731183652,-3646.7237117826758,3810.2776094693786,-150.49037131017468,6160.045235983438,502.1275609002595,17768.67553083037,-3534.9785623634766,4944.113743372765,-163.67066866475494,6171.5953691914465,491.6072904880148,18548.585699170708,-2943.200851240221,4120.269853155764,-163.53680242659766,6192.230021510511,470.5570694458453,18373.61185254627,-3332.793399809004,3963.4536798099775,-169.54203545507653,6166.975079096274,495.43613369158186,18904.30772994139,-3380.8212806715133,3886.8024248348806,-166.3801604247652,6183.007699956346,482.0561881519553,18936.449128529086,-4375.265148160277,4171.586397380997,-164.41957143833153,6171.0796501740515,484.33004398148137,18745.31939552742,-2686.1974637622216,3393.8919149256017,-162.6766298011392,6160.75021880657,481.64929613352143,17743.872323595588,-3348.2334151416135,4500.480339834938,-175.98724203715875,6174.6825024093605,468.8741834757602,18945.233131636855,-3933.757144662529,3771.576277684242,-158.27588027286518,6157.531961629951,481.6447660712739,18521.63900646811,-2880.0225261261735,3925.279335050613,-150.36419441514084,6181.492091922971,483.81394376018875
17996.0,-4272.0,4800.0,-553.0,6724.0,-1772.0,18379.360271924073,-4039.8093974744916,5394.12097694939,-558.5685238456982,6723.20817931648,-1778.915310205926,17390.37584330617,-4363.667681293886,4157.712521006313,-539.8933026917491,6720.601341199021,-1771.9863842546551,17214.003451911878,-5124.7931548851775,4487.519373000532,-548.14002247439,6713.681192359459,-1749.5903953455188,17659.388782205442,-5711.72927296527,5066.567300343765,-558.3836118913292,6728.688453524637,-1770.8952703991745,17147.5571897927,-4316.358514372147,4199.124867547275,-561.7626295194179,6718.674615494616,-1782.4348031453078,17922.91861964576,-4152.85636559425,4752.419333266661,-564.2758473555731,6731.9500946442095,-1777.7633440983477,18179.80893083368,-4160.114921881318,4688.290830876612,-559.3650826516841,6738.387692831938,-1773.8560165620147,17013.345801167838,-4771.284583909518,4395.1483836978905,-564.2803566679459,6727.142278624803,-1793.9837936462445,18306.975071374167,-4047.4695189695226,4990.326276429526,-556.0610325739891,6730.665020394996,-1782.3877430203302,18481.649705580763,-3407.273699707061,4936.262709017608,-564.4621235261534,6730.045291238093,-1777.142314939813,18219.56214880982,-4297.3992781109355,4482.434197735302,-563.6925794787155,6731.310830310931,-1754.83156016329
19376.0,-2588.0,6412.0,-4718.0,7602.0,-2874.0,18473.91026417586,-2978.25775268356,6877.591449008925,-4736.356968140423,7595.282212633716,-2872.8367122169952,20158.42363837889,-2946.4753402764445,6259.938021662332,-4723.756431855799,7587.110935678816,-2885.0657797229564,19648.362763893892,-1945.267307419606,6665.000729788185,-4727.037217917205,7607.534239941937,-2874.349036796471,19881.025328708278,-3164.8145084300195,6891.231273222903,-4725.250046560546,7596.165064867807,-2874.2300712998167,19999.770100543694,-2512.1428712732422,6229.039595342931,-4706.289224740768,7611.7983817193335,-2869.5019120721795,19639.044740737005,-2538.0547006027814,6122.66638706636,-4698.473946987161,7601.50624501305,-2875.178579908894,18680.674287449474,-2440.7785206790045,6281.106351481477,-4718.351175207911,7605.787235832059,-2868.0348530605784,18709.76569817355,-3175.262302799408,6257.529222218074,-4720.022602371038,7593.258814480597,-2856.4829722810114,18596.89612997632,-2633.6053985731955,5577.521483257448,-4712.252159487414,7611.101204357174,-2886.5001112285013,18968.0979478459,-1793.2312174731856,7767.282996033801,-4711.006394454656,7603.509211040948,-2883.275227650689,19831.938621386795,-3264.826375411053,6145.517145849021,-4723.761767153431,7605.805967223272,-2869.305780135956
18576.0,-5484.0,6816.0,-7172.0,5886.0,-3273.0,18063.112381859624,-5971.852382097544,7708.175690786615,-7183.353312408897,5890.4980525737465,-3266.9303910312756,18032.77835415136,-6268.564781308941,7592.551425416053,-7175.561507359383,5880.320501721038,-3257.6593883142205,17992.070076165037,-4958.699806535159,7106.662229993351,-7172.715123660431,5897.337470266045,-3279.5718959786736,18458.53830816126,-5690.548148608926,7243.021368090602,-7175.930846354192,5881.803740181201,-3271.402283887987,18242.78920847922,-4857.135432177951,5999.222033015591,-7151.010692209938,5907.73055623674,-3290.709021245982,18236.88071433097,-6058.075055838893,7812.306048870447,-7167.499875285232,5883.520691825793,-3278.73084002139,18943.80442654728,-4799.26599001653,6660.307383741855,-7172.386319902197,5880.196664209743,-3295.231470218788,18047.498533911014,-5897.160769441019,7385.187505834951,-7164.979217731071,5887.329726233618,-3281.7682353932178,18642.070466814024,-5436.843953431567,6306.847055268746,-7172.388846634617,5883.955929611411,-3284.077239791992,18115.273273149833,-6465.118644271557,6854.62398571818,-7166.437471399319,5872.770887236811,-3293.0663596390555,19012.691982998138,-5485.640100688625,6142.649452446124,-7159.106133461611,5888.299026169793,-3278.6137450450797
17048.0,-4976.0,6520.0,-7048.0,3367.0,-4158.0,16987.09735876241,-5848.122829688414,6226.668785583368,-7050.01452660104,3350.4651692970274,-4163.426769422737,16708.398299054064,-4141.105122117224,6418.13940681214,-7040.818985095406,3362.1090157074204,-4168.319222684443,17960.97992460963,-4679.535776326198,6630.063616690667,-7048.671065565643,3357.962899474639,-4145.955988374097,16718.624593336343,-4273.025525680755,6554.804541091652,-7063.436251880071,3372.741885562464,-4153.181380838796,18118.99553256658,-5279.631747499599,6875.948921561817,-7051.89446391301,3351.4892843181838,-4151.18967846168,17049.397717817574,-5113.393560804,6262.018493246528,-7059.685900902401,3358.8934588835878,-4170.016027214629,15997.869676728209,-4950.628848830224,6067.03335321888,-7032.082507774819,3366.107828564855,-4153.990127771381,16071.08981023543,-5083.579825418094,7358.143859852336,-7069.250735777149,3360.4606514516786,-4159.216482859182,17005.82700315143,-4618.985497701294,5977.258488866086,-7055.788947328038,3352.2408001159515,-4155.281285339546,16568.268434063968,-5103.06799715292,7215.768210889413,-7041.524232919247,3371.4239224503954,-4151.821622482956,16280.526646957784,-4933.823928027941,6254.365254381529,-7043.45166854092,3348.6880052889323,-4162.3037208990045
15736.0,-4020.0,6120.0,-6627.0,1112.0,-3672.0,15969.140192199002,-4275.026198233733,5273.329747828697,-6632.985810340256,1113.201245100377,-3664.866379977286,16276.769399280827,-3987.4945642933235,5741.610709806431,-6635.595415489378,1092.0255401347508,-3672.9072519315505,16912.79239662105,-3613.9000420508182,6467.340674411286,-6626.416002855835,1110.2558211243993,-3666.4624354866587,15511.042945313837,-4489.438413940496,5152.476278259908,-6626.4843656177145,1107.1380984777213,-3661.741177986625,16301.684582693975,-3218.4830969191075,6238.294859328417,-6622.8615327334055,1114.6339704295199,-3665.226239913168,14564.247596769561,-4109.445023261247,6283.770319896909,-6617.736906158631,1108.9990385913716,-3671.5026393082085,15856.471855909309,-3733.554879953713,6585.4698454444915,-6619.97549807701,1115.024057626823,-3660.1990260274847,16322.937039364666,-4063.9069115687344,6886.498343072733,-6626.970717336137,1119.0174575747774,-3661.9038809543486,15812.708887581004,-3892.9121939717656,5758.914104509595,-6623.658209046342,1121.1164767378768,-3672.329395308652,15809.278432544239,-3326.9912053395356,6385.0802468325855,-6621.87074865143,1092.4407703324082,-3661.1263109251645,16318.769874479396,-4033.1990789635324,5232.773503943245,-6604.115555199022,1121.6240783416406,-3665.782998627127
15224.0,-4384.0,5672.0,-4842.0,-284.0,-2221.0,15369.684657443355,-4724.472277619712,5836.216157376001,-4845.987956563162,-283.9642245402201,-2237.819092810886,15216.096668143919,-4545.4015975139555,5652.881077173497,-4831.310578429663,-290.00114677728436,-2218.484706628791,15728.454367981441,-4728.747050720791,6090.622827643719,-4847.405859576439,-287.87322617407517,-2226.485752640326,14554.425591126266,-4541.397225630614,5388.729929951197,-4849.164974819224,-263.1456256717514,-2219.488427689416,15809.17246955499,-3511.682640594405,5438.9910185257795,-4842.203299322882,-304.25021962666443,-2218.892062945005,15038.074822639337,-4842.582650573007,5652.572362512253,-4831.463042100115,-291.2521719091243,-2216.8501529663954,14946.878760457084,-3055.749524439654,4491.621715156716,-4842.063971404588,-291.36854120102697,-2231.1062717101727,14819.141400206006,-5325.193299630797,5650.612826614103,-4838.177052877144,-288.351643512929,-2222.377050752467,14680.796127671389,-5480.339636326013,6303.415090753783,-4845.148505606339,-294.7779777977811,-2214.418054411947,15426.730797006607,-4437.340715581659,5009.019404251667,-4828.828639393741,-285.5483500500421,-2238.4904572877053,15192.763367190795,-4248.33349372172,7125.867054673858,-4843.733170854418,-292.5141835315899,-2211.4201339134725
15940.0,-4424.0,5424.0,-1815.0,-852.0,-1343.0,15584.33604693158,-4193.961387200958,6104.031120534093,-1819.3787892227624,-844.5828991559883,-1355.5912290448557,15795.119576632982,-4974.093730109812,5554.539375523235,-1806.1540321510893,-842.9367652811643,-1332.9972872420838,16171.956940454476,-5115.887108961105,4619.430115530669,-1797.0724046988435,-853.1338617810903,-1343.4019696564421,14755.955690524288,-4628.374979151043,5278.206829685889,-1806.3480813668928,-863.3644475647251,-1349.522150398228,15564.287264404817,-4847.88455555856,5802.155896524102,-1841.57659463063,-854.9110187075888,-1342.5561593889586,15690.678503147223,-5081.628505366255,4360.2413555362955,-1801.766413648072,-876.4308543559121,-1337.9988685604187,15612.726641525996,-4594.294910502877,5713.552784113569,-1812.3753094289516,-844.6284659528874,-1339.5436873779681,16247.255645534873,-5124.138974125871,4002.883014687561,-1826.9783127976152,-846.5778389359781,-1347.4416946782974,15292.128458397548,-4699.643571923169,5546.311299708628,-1800.1648848470302,-863.4754064511283,-1330.0941303132042,15873.59918729668,-4838.05783389954,5470.751931146047,-1819.848190090847,-865.1626088504663,-1342.0634580694987,16066.535681830039,-4318.015163187596,5285.576961057763,-1826.6009222103996,-844.8243811892709,-1328.3056742901433
17044.0,-4264.0,5088.0,922.0,-527.0,-885.0,16329.49093485243,-4554.01352810869,5480.5967671006765,901.5956189180466,-537.8854291031872,-891.7500422153864,16771.49082952314,-4271.124439610384,5599.267118138544,925.3088688067741,-543.824302179453,-874.2725976635865,17517.391672563463,-4518.259558350828,5008.675659120581,933.3652295327087,-547.1978499061488,-893.3052180985287,17033.34241766675,-3860.498745092307,5904.143195304013,923.8457562486462,-529.1002606662296,-875.9595720006737,16811.332964424946,-4839.42860830268,5986.561497964528,910.6343839092195,-509.5503256195497,-896.7068851336871,17644.80473276569,-4458.60990885722,4618.345381850377,911.0220542263145,-529.4370736532355,-891.9558386577197,16382.470875710871,-4060.6903473475213,5399.688839924206,922.5287290525382,-532.2958429197173,-886.6076578282485,16707.765224006736,-4152.3682992744225,4673.849551864886,904.7350357521547,-513.8725137673262,-882.2656178362118,17076.728989901276,-4194.466450883491,5006.1689076627645,926.3588033498532,-523.6306765493619,-888.1830476974176,17235.24871604843,-3621.291577602749,5248.992393380161,922.6757926074022,-535.1007709508734,-894.0265391829621,17981.861439952278,-4804.820275398048,5359.093442692442,919.5053835846187,-505.8911083148493,-870.0974559948812
16644.0,-4136.0,4748.0,3469.0,96.0,-1221.0,17062.858210625516,-4644.174156725079,4185.509579472771,3457.6907930081024,92.19649911279677,-1224.8237534005532,17470.5500836321,-4151.137004327069,4307.323689568428,3472.3078340045313,86.621325580776,-1217.6308287022894,16398.550321264785,-3454.1504740014066,3954.384378309832,3462.7940456584483,110.10877517910043,-1219.709274134504,16648.5579092032,-3432.4439360312895,4436.11602964187,3466.58962167335,121.99207126229352,-1238.073684540685,16788.887186481294,-4212.1369539746565,5271.36271169959,3475.2318720035814,110.00384666268309,-1223.6748241004764,16183.090445605592,-3845.746224365323,4147.347765576568,3468.1283504238572,92.6320328278666,-1233.0040265934051,16444.64978219154,-4381.605867929669,4923.560105951581,3451.176991622286,88.39646326171014,-1221.6267597843066,18097.22659498021,-3703.7546415021266,5126.590266178922,3466.8367128876716,92.19061460950313,-1214.2730890483133,17218.42607576359,-3903.4211083444056,5063.192344894742,3459.9065064791166,97.80773438815991,-1196.1850832570549,16820.043744291946,-3920.1129530894436,4948.7426244487515,3466.6266642471323,83.52427999535601,-1222.5708074100778,16852.76707173078,-4378.347704416768,4492.164508436177,3488.9390364743404,114.56670230786926,-1223.1557920175142
15332.0,-3832.0,5192.0,5561.0,559.0,-1102.0,14674.523623091205,-3650.8919973801667,5891.7365426083925,5554.244131094963,569.1684376774095,-1115.9033324236896,15451.79828300498,-4230.496908554146,5290.7474069751715,5547.523316271964,568.8166033696947,-1107.0705920192122,15676.986494859266,-4312.484591983129,4592.88190653534,5557.01626907405,564.0176129640843,-1111.6795095817583,15823.59762442217,-3339.0288520681083,5268.086873581624,5563.687035388071,558.9558996650375,-1104.750395442547,14933.400055700522,-4066.06557988875,4855.6188964481535,5567.307030150415,567.0991633297399,-1111.4330405917365,16583.41047510765,-3438.1517102650337,5389.067639369979,5552.155692964745,552.5562379215401,-1105.9754411807241,15647.886160856531,-3251.6896710737,5467.041941745705,5550.131401706423,570.6871648453877,-1082.2857958483319,15709.194845769875,-4091.943125830083,4577.525288963329,5578.2490535176175,562.2548278250124,-1103.7047933898493,15479.591288845253,-3950.2484768487093,5257.903800247478,5565.862080130734,573.8948947748177,-1112.4799068021312,14842.073354835677,-3813.5366057553597,5687.542785066068,5550.726050273159,568.0057709266395,-1095.0565341267854,15541.361440744586,-2769.9101782040207,4665.904147436329,5559.43969473933,567.8970147548453,-1105.3459498287748
14024.0,-4016.0,5384.0,6918.0,400.0,-519.0,13460.766391764413,-4367.779993286427,4798.534437630245,6912.117840276718,401.121551076617,-525.9861513952056,14334.008888857094,-3977.4492694367586,4930.4589135605875,6921.899302792668,416.1062457045425,-531.6280024644069,14293.111511752119,-4083.711400391791,4517.640796088346,6916.455510666533,412.1769378815424,-519.377697726019,13759.725950081902,-4091.0255965595143,5161.723341966272,6912.549546095251,400.29200191025797,-502.44111261869614,14699.285499977765,-3817.815878457896,5199.79419972904,6920.436405670238,402.79523098064504,-502.97306682754765,14144.866216203565,-4140.227864406086,5095.69068676759,6909.135229420596,407.02468477080333,-508.7232594012485,13821.073846009991,-3708.574486648145,5197.438863769793,6911.206092301838,407.31084208700815,-521.4962538238136,13980.68811756625,-3921.4359209693694,5265.692875791587,6926.354934777165,388.76395647455985,-500.59195399370407,13797.044340344532,-3689.5969432778566,5623.609393772064,6917.195441079515,383.2660616691312,-524.5157368767963,13590.725807096194,-4097.581073716352,5142.684797786682,6920.659600392461,405.58222639527264,-511.2920446894687,13800.527227580846,-4927.024166848554,4394.708039872594,6915.968888154209,424.2640205664853,-509.1428273146707
15064.0,-4632.0,7556.0,8598.0,-818.0,1461.0,14689.36915478986,-5650.361312784094,8506.926016588543,8601.930488834932,-836.6413488422313,1461.6604137121305,14955.351494019227,-4931.932838924185,8160.630573523872,8590.688607113392,-835.20559272481,1443.612238967655,15249.028288965172,-5083.853478411254,7418.463998193084,8609.21519961305,-808.3483651482356,1458.6207303000392,14507.195224073286,-5829.319966348565,8034.24482288525,8597.733319863888,-829.7899931221174,1469.6229226419198,15302.349423689064,-4152.758846435795,7519.363448823379,8606.978802002752,-813.8816066737625,1476.6969760066106,14992.213738723387,-4856.408871781421,7293.484037823844,8596.560911686829,-823.5676154264479,1450.8958531093292,14358.231038524085,-4967.722910775661,7844.310731273762,8601.301180557623,-817.4789282389293,1476.7032215803035,14172.545613944323,-5540.223248305555,7398.852608209354,8581.030502827623,-830.8562893033018,1454.1175660755923,15093.102857893933,-5048.296342307646,7596.651044963116,8603.590467402448,-822.2968034393617,1454.169157285532,14721.284170566649,-5772.5972874669915,7377.383826980493,8597.094870042514,-819.6392032177125,1463.8088908538516,14734.908758909449,-3764.211346533105,7581.75621915284,8587.978337288574,-824.5172887877599,1454.5705704414984
19216.0,-6044.0,7280.0,11785.0,-2261.0,4003.0,19582.70075392549,-6477.586464200318,7604.391275381949,11778.518555770153,-2266.8359253007143,4015.179775700064,19537.21366002409,-5303.083477621098,7292.636060042761,11771.050067360702,-2274.915819991112,4027.061498744729,19098.230026455138,-6374.128592484894,7192.6866464596005,11768.557060873965,-2272.0228484312042,3985.9858210476013,18346.925887714606,-5845.903356127713,7453.694521445134,11792.921036525608,-2258.082036643458,4000.502419224336,19222.166058775398,-5726.631155208526,7444.548579203063,11793.362067416678,-2244.1815973479875,3995.140300252439,19345.91135883722,-5853.390664518307,7407.839823488285,11774.749186985426,-2259.77884510831,3998.853316604154,19457.95576754593,-6587.896267560412,7401.76274272199,11782.814158474588,-2268.872491180342,4006.076217225395,19033.67569691481,-5878.352834544012,7744.304410602785,11778.888286263029,-2240.98691056352,4009.017148604865,19367.120819646356,-6054.533861202563,7157.229288964327,11784.002910354764,-2265.416055389713,4003.7726511849773,19721.861520958653,-6143.733450253705,6883.201960127428,11793.914361953499,-2265.414427455951,3986.42070967485,19290.07307738262,-6101.7072165453255,7338.519084627885,11783.977053447774,-2265.624281999989,4002.372357988642
23376.0,-6484.0,4632.0,13907.0,213.0,5214.0,23469.468467321884,-6463.6127767063135,3272.7896857292335,13917.190159044456,205.11275822165766,5203.047419579901,23315.818542298355,-7773.354199712893,4641.480838329505,13872.44650551317,218.95458820080867,5203.337914813555,24197.10258923938,-5549.086354244738,5441.421916246637,13901.196696318035,211.4746806031911,5210.204299108423,24432.276321844623,-6616.144028617928,4532.752423416845,13913.225808177956,228.12634603440944,5212.867324942184,24899.75272333269,-6383.686598164156,5080.1990735258605,13895.644351793877,187.35264659840496,5222.478140888977,23679.312153640014,-6005.553741049542,4441.403648235063,13899.169627517771,222.6164592285367,5220.427508900297,22261.11326108129,-7040.866974407635,5549.317633036968,13904.604916384204,212.13603245343816,5222.678472637855,22341.21010946955,-6103.865908620379,4605.0811850556165,13917.155736035395,223.27225299195405,5217.918785971369,22689.47953302046,-6494.572424040732,4826.768728069908,13911.281832544451,209.4663240766511,5223.536976846429,22693.86975897466,-6834.449124287754,5350.056814813075,13914.470739496483,212.2650979713399,5227.717492956196,23537.466870003253,-6381.084327676613,3801.3432380958143,13894.644213572632,227.9181041999859,5226.608386102726
26008.0,1384.0,4900.0,9991.0,4724.0,8951.0,26305.243349813903,2038.5243411147926,4123.650880648875,10000.240804037667,4712.459248292605,8940.067707803777,25812.196469619288,2051.5687844744634,5581.5673488991715,9989.087503934257,4717.821634468344,8947.663705052551,25680.756645252273,1893.3345503314854,5068.193780693076,9991.376853627022,4731.427698566788,8972.034707521367,26954.710661771358,1370.1581417540767,5086.770052431042,9998.075592500838,4723.505583969206,8927.491388634238,26098.164673438143,1616.0733394628992,5472.630817224708,9991.911777029345,4716.814788689535,8966.27423804785,27149.77597278688,300.7416787468178,5228.182813848012,10001.896908775247,4733.0357083448225,8949.272038250288,25702.864368927556,1834.1315872863822,5797.285300860012,9995.816447304695,4717.105406799342,8955.574298280166,25671.67863085531,704.5290732358724,4808.520827554483,9990.121775822567,4717.933905282041,8940.3704207398,26153.876487450816,1733.6807328605555,4555.012752442278,9987.447770575807,4735.253619844233,8962.439306760461,25269.32786012243,908.2776072709478,4716.838001548503,9978.53340331898,4707.192613720242,8925.537974005598,25974.000062059466,1013.2185042140053,4718.468446811632,9977.758958091217,4736.358750876677,8956.146659426116
25564.0,1924.0,4076.0,-1969.0,9181.0,16386.0,25379.601856439494,1245.5728877008476,3677.5035295340595,-1956.1752222624746,9177.42238700421,16386.013789758108,25802.40130911539,1673.2414388420937,4512.34618094067,-1949.8432921103577,9183.700927767994,16401.72709920301,26046.107336066427,2196.992668089928,4706.606229237192,-1971.7920904114155,9188.634210997438,16388.450166310708,25660.666233163927,2194.5569569028335,3414.9948102050093,-1967.410435455894,9186.159270717691,16392.664638752223,24600.09717405368,2050.8517480845617,3791.534425653402,-1962.0057878974387,9183.332474859773,16379.861876072822,25960.58444252815,2004.9506098552786,4347.121383278129,-1963.9151626493635,9170.347432297362,16390.932819317866,25336.909954719926,3092.792221959261,2583.702554651175,-1983.503140458991,9180.53838512727,16390.507298092067,26168.412539657013,2372.6704108974263,4286.598579785517,-1975.8582739344806,9186.139001259455,16383.602963811274,25872.175193145908,2190.4271017342044,3809.805312687805,-1969.1033126561151,9166.108179235855,16379.898982028262,25357.382892458358,2357.4747426180693,3337.691515489083,-1989.535753089364,9175.531644378118,16385.407837230552,25047.129994318893,2213.6503559159046,4211.291936504221,-1960.1664447836379,9191.022598083257,16361.094664557064
21944.0,-5856.0,2996.0,-12347.0,12713.0,14430.0,22377.775571086833,-6502.218213617508,3593.8710072843487,-12343.873229991996,12723.949988380025,14434.824126991985,21283.83902086885,-6149.001168875708,3558.622852425565,-12325.56161942161,12713.629450440778,14430.036357392872,21845.798830768585,-5401.562364735853,3080.170271504608,-12330.99812329614,12716.342328074179,14432.007353476907,21288.848179495766,-6288.590254904083,2116.999177485037,-12328.739203733008,12724.235929441507,14420.728024921498,22114.453789651754,-6078.018344626984,2537.731254831533,-12352.86165196125,12707.445771071609,14431.92041225016,21658.07982378888,-6147.604342041089,4242.278925136141,-12357.690019478256,12709.658231911586,14458.35533837524,21586.254601546894,-6194.988992985387,2636.996242945177,-12362.15237815748,12718.731991846575,14443.369041396216,22537.732726655024,-4977.6954427096525,2606.226868456481,-12353.101873799342,12705.37562618418,14429.222141658325,22352.84030416571,-6937.740503737098,2490.653842060262,-12349.884691976189,12697.2805190933,14437.948363566635,21177.591924484754,-5636.85441348044,2410.639435395811,-12340.045290391367,12711.767929255968,14440.453773105673,21767.19851436023,-6087.564013050185,2070.618946857142,-12346.172282469823,12706.468525648901,14428.856828813989
20552.0,-6760.0,-1660.0,-15703.0,10091.0,5405.0,20242.73130902928,-7892.45328200572,-1949.54607216136,-15692.993471015212,10091.034675250592,5403.638927189123,20517.385978564664,-6606.521244286137,-753.0544847421212,-15695.443959042655,10107.327190771251,5435.237361650105,20126.579406424582,-7205.739023127728,-1360.1480573562235,-15707.560226124284,10088.43484514378,5403.802966986366,20876.85788212632,-6422.795550492093,-1856.0280863034452,-15707.513641402158,10071.593194448242,5411.556999505721,20290.88018460736,-6447.7302455236295,-1712.3434116947685,-15716.737201699987,10087.158319387001,5400.177133326405,21094.505687699326,-6950.740464477357,-1918.2517439075614,-15687.35126274713,10098.988681628358,5407.902997616377,20146.303994152076,-6714.7259288238365,-1463.393178613269,-15713.598307659457,10090.222486973831,5397.521789684393,20907.238058368934,-7280.731375600847,-590.288110155361,-15708.951235065619,10107.130791729862,5409.523647191103,20664.407223924652,-6174.848773662911,-2052.356992534819,-15706.383340435383,10087.201426808011,5413.089521539458,19904.024745679275,-7547.729810258611,-1076.1282265936707,-15704.59853760859,10095.517637977333,5388.27631149596,21038.022641920004,-6880.201752727288,-1296.4407563948005,-15716.526456056947,10102.916025799927,5411.367863635607
17332.0,-8700.0,3656.0,-11545.0,14490.0,4883.0,17194.763817452294,-7927.36060761994,4596.884823599082,-11532.62907011604,14491.274364311932,4876.680861122699,16218.025143194967,-9489.486771170237,4274.317677150344,-11533.276176225996,14480.711995902278,4890.457315340416,17246.414102869097,-9759.594366560646,3385.225227503202,-11545.887598108,14481.822479101458,4877.765617476259,17465.814383073808,-8633.69684619935,3056.7859395263276,-11559.232543724182,14486.966084403733,4868.909383796404,17413.296646062925,-9164.831128576803,2663.6219615538944,-11539.528463382587,14493.029464729601,4887.430179320643,17354.425277512375,-8801.888448342905,3554.0381223713816,-11530.607850049659,14503.250469030563,4901.459034214065,17401.50101863566,-8287.428641679711,3833.973425063267,-11532.327088941624,14468.706885419142,4882.2604975572885,17141.95974443943,-8531.858150085363,3140.0769065068616,-11530.186868902643,14495.322676310894,4885.87791312,17227.058175219187,-9806.650949101588,3798.772667365251,-11538.651278724483,14497.24012919618,4885.674166063544,18043.540724460407,-9058.816282877639,3481.789417270674,-11547.839563682774,14484.832852262598,4883.2807726649235,16590.609314684883,-8794.556477746359,3955.674821721132,-11552.53616236623,14492.130543791067,4882.269498774437
14412.0,-8832.0,4908.0,-5810.0,13225.0,8846.0,14732.889382501286,-8763.067055515347,5254.216899842227,-5810.870561241676,13236.034710954738,8837.059530848006,14185.853890806018,-9604.344660821409,5247.418857323314,-5792.7245868399805,13231.504955350032,8843.30037522629,14024.021154782497,-8046.112077734685,4998.604999998752,-5815.333176512217,13229.056323721197,8840.312031223131,14405.285076649123,-9177.54099887045,4430.745825822614,-5800.143492452863,13221.12470546619,8834.341065051278,14720.972466358322,-8701.4381036035,4382.532121293838,-5796.645076031779,13215.542083134871,8845.380754996453,13880.421275264802,-8754.942648149774,5310.877963001863,-5811.189056190337,13237.778093311192,8854.364983523988,13982.968103824209,-9193.611841550726,5176.416623746922,-5799.962317689525,13204.779437545621,8851.131488720079,14170.720427809618,-10102.296682109194,4230.6294474317465,-5815.533678945445,13227.353599275273,8839.400370661959,14062.60936911048,-9503.232836402687,4973.324150008914,-5797.575117586319,13211.827469156367,8836.755643862407,14837.119145661058,-9345.507383908116,3925.4131711305845,-5822.817224699609,13213.08568512358,8856.50390131919,13926.88175578203,-8157.581720685824,5431.9530116481255,-5820.485678553992,13227.623729876581,8841.348844342881
11000.0,-9636.0,5608.0,-3576.0,10832.0,17721.0,10646.555422490332,-9270.314614988263,5932.1770710402225,-3577.4897414568386,10829.23577674688,17719.375477108766,11380.980000698884,-9701.591513346848,5472.38574141426,-3566.43644549058,10828.262941515732,17723.474176320313,10979.406832191704,-9872.740965886427,6338.286127529282,-3574.4173868277944,10842.76823442023,17709.00842805877,11194.071987669346,-9474.697541929989,5526.904528289557,-3557.9101052502265,10828.012719791072,17727.601020613976,11107.461531657633,-10778.91537634637,5752.348406850238,-3573.979198365477,10830.021412227767,17744.327885130177,11792.812677255757,-9981.447202702251,5513.519200376597,-3571.8942652824953,10822.55895255635,17734.160859999916,10866.333021235008,-9896.893634721944,5220.758249655112,-3580.905367784865,10838.74031350184,17722.152850636063,11592.235425890909,-9246.94289691092,6100.053791325935,-3565.2688526959937,10830.35322466617,17713.445925898675,11183.013617852836,-9688.949325327487,5655.684089959734,-3584.852185553411,10844.949332152897,17717.57100917168,10721.580562824944,-10161.103420293586,5825.429946142058,-3558.9105580816326,10840.139322598794,17708.479043212843,10746.495158742615,-9591.622819268856,5889.303714544647,-3556.8467103380926,10845.098327870921,17712.668779842712
9260.0,-10148.0,6356.0,-2980.0,6623.0,22704.0,7881.711733733642,-10279.633253419735,7014.872428485988,-2980.6404233716744,6626.7712252624515,22719.918248605838,8832.015434644403,-10071.259177340136,7272.240279120959,-2989.221128158571,6617.457617372578,22682.501376829667,9645.655380378535,-10909.71821164221,6439.380080587125,-2976.4955778045746,6611.871744900613,22711.72414322994,9489.230139151774,-10561.736077906477,6679.310166110701,-2991.4739223546185,6628.718254942118,22725.7310999129,9594.331619748487,-10404.914079207074,6895.787451679125,-2991.262108658453,6639.336775217504,22699.436701621304,9524.113691979992,-9600.489577597009,6704.187051507634,-2966.260416188141,6619.478444547829,22721.873829132528,9709.076975880756,-9630.704409043472,6409.025557936585,-2997.923873210801,6623.269917192473,22692.917091736646,9255.366649537684,-10221.501650985016,6885.052898404161,-2979.498946668314,6625.678928061991,22709.48429546276,10061.69948210336,-10034.969266576098,6206.682062274468,-2978.3783342459215,6631.016073121331,22713.37704158184,8725.588462865171,-10325.54278768079,6664.812076832648,-2987.4775689671046,6631.227209210629,22708.650361775268,8803.764953305381,-10053.863133683793,6849.887674839739,-2987.5699046441187,6618.248894900997,22692.737439425615
8512.0,-10492.0,4508.0,-3912.0,3418.0,25774.0,7633.475766421652,-9866.10659147077,4609.166518090996,-3922.116324787583,3413.2740321321303,25782.15375388403,8884.137821507446,-10567.753458363248,5445.823597188776,-3928.47538565582,3435.149317062998,25775.475971346972,8131.272708033635,-10847.383630607106,4238.203116459264,-3907.2377554874265,3420.7594527541532,25778.036632685693,8319.560676079569,-10649.702539874614,3984.3321309102266,-3904.9533107965462,3413.805043656099,25776.89700579232,8386.422651079683,-10877.510428555119,3836.633719536022,-3923.2927990666276,3425.261652556236,25757.56926389681,9050.99505139023,-10440.32216939689,5132.394126129445,-3900.4080538492035,3405.4232441196787,25782.820211166556,7820.285416095263,-10827.067117276443,4414.110593601713,-3901.58506128351,3421.013634341117,25775.57282005611,8767.546042743637,-9424.720057652057,4145.486508777523,-3911.4698344383964,3428.150327238958,25766.063617905016,8809.813384374198,-10612.25338210515,4444.980601707359,-3927.7992808155814,3415.2942816227614,25779.75975364949,7996.830368749161,-10717.152411183417,4686.914191326122,-3909.9308356261267,3422.8859562364123,25770.676585528043,8104.429862135896,-10692.922318713456,4251.491283083315,-3909.7420335463,3410.8800609715818,25792.82517710858
8352.0,-12340.0,3684.0,-2673.0,1977.0,22516.0,8417.27142909316,-12739.658064476605,3861.8309553861814,-2672.123245699829,1964.6328112149147,22504.45230995403,8250.934391070226,-12507.31962874132,4423.151450591346,-2671.797615979771,1981.5637573195663,22519.585138627477,8676.463697011275,-12715.853481243455,4150.944409727283,-2691.3651774692844,1971.7289235333221,22517.651383445133,7911.3768011979055,-11707.039372466425,4037.5554221511948,-2669.873872304469,1970.267337837497,22518.673717662277,8215.182725083088,-12321.809990029571,4295.374763680713,-2661.836867204638,1978.5268547997077,22507.01140223431,8203.262947681269,-11814.82850984207,3641.0949387854826,-2655.3858999942536,1965.9278008534793,22507.36887157695,8262.420571559469,-12480.367991498257,3813.5516146860605,-2683.8986193826086,1977.6683596693863,22514.250086420892,8746.123546730933,-12287.98313597025,3487.9969286336745,-2663.621389560158,1978.6885289979887,22540.697964362553,8262.422429359394,-12209.970919112318,3933.4095000768375,-2686.7212910259764,1971.1452009665472,22522.634280312774,7818.194564786071,-12024.208117647582,4250.087411201565,-2656.94878154428,1982.7435728012795,22499.583948848453,8069.511362117742,-11823.68953540087,3039.2078024173175,-2657.8363699446522,1976.0937889324778,22509.99628993448
8416.0,-13668.0,3652.0,-302.0,1211.0,19870.0,8344.954800299935,-14498.078960921299,3665.313327040686,-301.8332520195687,1208.8272677478813,19888.637896002718,7488.177929620319,-13968.714923319649,3674.633490686295,-292.0399403342386,1194.3552193679595,19862.72137035396,7758.8805124578375,-13866.03927297987,3293.73062789215,-308.77352826415535,1203.51594133143,19868.45843780704,8357.133889628061,-14498.902790330883,3125.5160847332386,-306.5246642047541,1201.4338909348237,19861.044983950706,7720.4220653966495,-14231.744199501532,4725.905722512096,-297.0986984204456,1226.1415836335993,19851.405007856756,7593.647179181046,-13351.396649973132,3932.648240589484,-299.30495008180276,1219.5632072195037,19883.452610205008,8739.513470839553,-13783.576095414528,3299.8536605301438,-316.07058546132345,1202.4430749649691,19876.497725479378,9404.332385418758,-13504.88789442464,3260.373907211789,-297.8507302368477,1207.0574588114716,19879.644825902236,8295.450119363097,-13982.111768548388,3344.1063176363737,-305.77555066432046,1213.8902304399937,19880.304658848843,8171.481800129352,-13404.62863983197,3781.248366906694,-289.32856855219063,1215.4073338300047,19854.588188143025,8196.205869913254,-13897.632551608915,3328.2109301149926,-299.8047616549277,1228.5989798950197,19875.37060535192
8288.0,-11156.0,3996.0,699.0,534.0,19872.0,7937.084435763039,-11231.788266204936,4861.222768566347,698.2479891298748,518.4146821945241,19877.847923654357,7757.89268656863,-11236.017145897786,4077.4322917602576,671.5153883022674,543.7651566369886,19872.995238870964,8515.6196412271,-10951.203618675301,4439.148517250372,710.7388542021506,551.9795184292271,19872.016855177124,8765.15721370171,-11259.731380818059,4264.064704452402,703.2099418607601,536.2401143023409,19867.645684815856,8634.695323065216,-10981.330151927183,3691.6062390882917,703.5472986043774,532.1755415482784,19866.1237294382,8826.973508910767,-11197.137168023593,4963.4656506217,706.9793561613775,533.8476735300691,19867.497655242514,8195.834454174596,-11242.735212008794,3965.4556662557766,685.6155771689808,533.1558938100817,19881.716958895984,8433.309863884007,-10681.08811645168,4003.17743171562,691.9559889825587,532.8464097408842,19877.11872624788,7813.75606988751,-11391.616203622732,4039.941615477077,719.7051953347325,546.4739158129443,19889.898853857616,8237.654708397355,-10486.170072226643,4270.114722460766,697.4517542856672,533.1511091256149,19856.262530206866,8403.49334604027,-10803.547854304663,5150.11310216241,692.8895759565163,535.3857371579375,19867.917786351096
6460.0,-8532.0,4416.0,-2794.0,-1341.0,22031.0,6260.913736797172,-8368.335053496447,4305.5728840005695,-2791.2223799592302,-1327.7755584919585,22040.185768893378,6255.188874458021,-9230.127614269964,4637.579067399062,-2798.4574091044847,-1319.8833655570959,22040.60864730134,5762.609900982199,-8707.998274800444,3632.718794919249,-2792.251476119825,-1342.793249363107,22033.356793330844,6858.657452428589,-8139.06799099768,4650.665372625937,-2804.0409774948344,-1335.5754660680145,22033.665599308883,7085.259866626821,-7813.95798663466,4593.469628915716,-2801.314551274025,-1334.068390563098,22028.23028038902,5571.000921650616,-7849.72940446786,3885.526342648165,-2801.41740443323,-1348.8487086587222,22015.214006945862,5874.268029033232,-8611.259689109336,4758.858042186241,-2803.27144980151,-1340.376963252624,22030.95906499754,5906.5466889638965,-8723.185002532806,5274.924056612822,-2788.8171440397878,-1329.4642388070172,22039.724364635425,7018.65155946545,-9566.4349261755,4586.034692710478,-2786.6821411295437,-1352.4688378476533,22052.494177679546,6038.815717884068,-8289.625993671883,4793.6305164549885,-2785.8207952643356,-1349.252476547437,22015.243731832103,6156.669805978677,-9222.172782860374,4209.494148848546,-2793.434878777989,-1340.2448324973716,22026.830464611125
5068.0,-8300.0,3792.0,-7108.0,-3846.0,24161.0,5261.10895091542,-8014.801272445866,4016.5044491535027,-7101.954172061317,-3849.6010742723174,24147.157566669914,4245.4594690231,-8874.832426310799,2778.4979572068405,-7082.570532408439,-3834.8489018792734,24168.741790799748,5592.948406491983,-8091.470362867874,3423.2934990999806,-7124.847339489491,-3853.5830839667356,24165.884631077675,4938.831647834802,-8438.245050634785,3632.736800290854,-7090.0350658549805,-3851.570054873435,24147.587513695697,6049.129228274844,-7688.083002963346,3971.052343665017,-7109.044049241628,-3824.9118396760387,24168.489834716205,4663.0601192708145,-7352.020252185866,3603.235283896045,-7123.668557831819,-3853.548079109159,24170.41024823443,4930.107568698757,-8058.565860659972,3801.313817553691,-7109.877988355226,-3832.3651515308115,24165.916880756024,5361.2617693901275,-8423.352976636583,4708.718171644189,-7107.451939296383,-3853.759118370212,24177.527319972487,5427.30720774982,-8194.667258543363,3110.1841772098655,-7107.0674182436,-3846.8324873430124,24165.144982163638,4594.386526350636,-8622.817907153392,3655.8743113754317,-7105.699075930157,-3830.50874307094,24168.064051389865,5524.363357379097,-8354.05488268688,3710.9437640166634,-7087.75651823079,-3834.9311822626205,24147.764911977858
4904.0,-9244.0,4796.0,-10192.0,-6433.0,24097.0,5684.44364183506,-8758.4299406556,4115.335026871512,-10185.721344068183,-6435.414928903537,24095.921523798435,5476.919964573362,-9196.927767245448,4331.889888365741,-10187.832918838581,-6441.9019447169885,24089.26405565465,4032.741317521414,-9589.15152686543,4864.2121289996285,-10201.834576543552,-6465.272712660592,24085.862491302825,5457.8167462524025,-8693.38053418168,4875.950489897535,-10207.754721947083,-6438.468357131362,24115.655867688343,5333.266698953431,-9102.686111656283,5320.151264842746,-10199.242275020808,-6417.928093681198,24086.266958499375,5127.471313407554,-8423.576679218906,3593.310961078622,-10182.8685249505,-6432.675984615546,24107.718555508705,5241.049216677434,-8611.283354966901,3858.551475987668,-10198.308261533413,-6426.808918638879,24092.844489317074,6148.308309158909,-8931.882689905347,4975.992761945048,-10192.467644289312,-6440.960083028113,24072.88843519782,4972.196971951563,-9556.055203424074,5268.360324170729,-10185.83864905545,-6424.225705369259,24085.837148124712,5106.2381336628105,-9547.164436252137,4708.036040071811,-10183.823293957314,-6440.670811698015,24112.482183182656,4782.2256216114565,-9328.459252145187,4472.423126275231,-10200.58680836438,-6418.78099572114,24106.491979992574
4528.0,-8544.0,5076.0,-13976.0,-9723.0,23938.0,4559.688144695313,-8389.103075593686,5375.872765082478,-13974.868306343085,-9717.32588811443,23938.15132949487,5229.034569142067,-8942.52572588303,4396.194459071729,-13961.981422316434,-9708.572595117954,23941.49660726441,4867.644850141087,-7708.653527546064,5614.388877145701,-13980.06080156248,-9721.007357578472,23954.42184656851,4055.9746562904047,-9222.196715702625,4832.000718080524,-13981.081659173924,-9724.224369047146,23925.640115132537,3877.2292633281018,-8517.354173878892,4168.669275378381,-13979.132214654266,-9713.909385860032,23934.978118043316,4863.405953968256,-8038.613982890318,3807.0362065306763,-13973.04387169046,-9735.33139285126,23919.482362570132,5706.168549707287,-8160.6677637560615,5656.962791537959,-13970.45404420066,-9722.64918809544,23938.86281051742,5338.571427261561,-8478.080618825452,4948.6212873926925,-13975.651461992284,-9751.480805383859,23937.3078487088,4867.84726095495,-8315.701866922123,4569.561592379479,-13966.305628570597,-9727.169115005376,23945.061821656167,4725.323094338752,-8364.085414660514,4840.182140758269,-13990.272239768476,-9720.091115779749,23941.272774727102,3639.4998808059436,-7810.789109992942,4632.726478248606,-13966.78851155247,-9717.407054535348,23936.77286346302
4844.0,-10572.0,3516.0,-15357.0,-11253.0,21403.0,5594.901594084435,-10590.261341373358,4083.1704921133396,-15345.041686988532,-11262.666529092001,21377.105502189945,4850.700513765858,-10758.753547874176,4413.974518772439,-15356.733425913722,-11233.830637277335,21409.99041036951,4084.6678810812436,-10384.059831524208,2826.866406941671,-15350.340680015079,-11256.582314279496,21414.394744600977,4964.470020300594,-10233.856876936332,2971.675513094905,-15365.97803606781,-11249.026933600515,21403.215800307837,4319.089712285373,-10523.487284043133,3855.7410265304075,-15354.26211733622,-11246.179158382336,21390.267540820627,5722.120783244246,-10203.969713006363,3632.946986207937,-15354.395044215526,-11262.624169355975,21410.51999507332,4837.577627880186,-10221.07515781664,3154.8026277142244,-15359.572634593933,-11254.956123116996,21395.77842259772,4937.071508490279,-10623.934810755049,3023.8375643022414,-15342.55506308917,-11263.069683582946,21399.9471585242,4974.447346143718,-10041.415666357741,2218.0410759467895,-15352.15274816603,-11236.743037522489,21405.17743607593,5097.106715236165,-11191.239039352859,3325.5373231218646,-15351.424796731668,-11258.209640794314,21413.219838462002,4380.249328955653,-11268.566377186871,3005.2922285791515,-15357.790434984234,-11262.318331554228,21415.26937181106
3628.0,-11576.0,2728.0,-13935.0,-9788.0,17727.0,3434.720540143265,-12149.88166739111,2110.83269561246,-13955.58099875771,-9769.346901409735,17723.694433794582,3411.939629960266,-11307.575880291985,873.1698400492428,-13941.272495170371,-9771.140595914485,17722.668592673814,4263.03773797184,-11435.830473138925,2613.1442040609413,-13940.280151692883,-9801.412943783589,17739.36636459864,3661.16565881982,-12258.342743879217,2696.808819429499,-13931.76983965963,-9781.57154003943,17732.333605601667,3523.785748415016,-11336.972460310828,2891.2582313816474,-13936.14437544048,-9788.392014131994,17755.460715465695,3549.0399176282904,-10984.171432548093,2016.2694872428144,-13947.44592532391,-9790.646678654164,17724.32947456155,4142.775366599505,-12169.364469555689,2526.8421606936663,-13945.436412689358,-9769.174980614722,17734.010465043568,3304.6322071530794,-12097.752264966179,2654.8812090576107,-13932.825585749675,-9801.555207500218,17728.108907861275,3276.322351823297,-11831.24800682192,1866.7430754819065,-13941.465791959314,-9799.979086691972,17717.176802082253,3320.195449960736,-10860.145382918552,2952.1924820394497,-13924.814648986938,-9786.05308615488,17741.581594239688,3774.2672291923786,-11287.34218657901,2096.8168258492205,-13937.415794464854,-9768.59600886714,17734.525318841464
7624.0,-14960.0,4188.0,-8577.0,-12321.0,11977.0,7487.120439718018,-14448.060924677482,4264.200195685821,-8593.629000187288,-12327.249494133124,11982.4447209408,8017.7656756046845,-14969.065315867765,3535.9478965353537,-8572.276714260386,-12334.656485682868,11970.36575920733,8550.206947575365,-15286.63073501003,3945.5051437891484,-8579.492780968358,-12322.446906044268,11980.579968000986,6892.036026314783,-15695.079060796255,4175.785192623457,-8575.21478600039,-12310.823198828517,11994.893840881185,7801.668170669119,-15153.13240515809,4380.736174674982,-8558.723744182138,-12329.700547516903,11972.006693599647,8087.840357706776,-15376.81469235088,3852.2719383632602,-8570.262980391624,-12305.16654651424,11982.731362286046,7793.637458540906,-15820.794296444097,3852.841102981344,-8587.26684363137,-12320.531493616258,11982.523790139414,7352.2773166454845,-15425.660635595588,4399.173835021529,-8575.668076163834,-12312.05659794527,11980.616047623582,6640.409592633815,-15635.088392834394,3711.2338375707495,-8589.636803405969,-12322.757317691727,11968.914646620786,7708.2832723811,-15305.67634990092,3603.8379172680498,-8564.663475766261,-12335.752014849033,11971.941922243725,8558.940666924533,-14995.287695924962,3971.0102029583245,-8565.802472331403,-12316.468611066499,11977.49659584889
8660.0,-16512.0,4196.0,-1300.0,-13225.0,4925.0,8641.5814979549,-16933.38388954004,2993.1475402050064,-1269.944791451785,-13232.145125370473,4924.7201157036025,8471.350991737814,-17431.179903516364,3419.4612044591277,-1293.9306860689323,-13230.775602284293,4915.2422769889545,9053.062782993995,-16611.220247498404,4233.922770668524,-1305.1100970252644,-13221.33753727968,4921.502670951727,8020.928821511427,-17033.58272061462,4912.751305218326,-1308.8613700768253,-13238.900795048805,4924.231618566324,7886.853367133159,-16221.706575150592,4449.264689836727,-1299.7148028475845,-13226.435095105144,4923.666966150424,9067.447909731203,-16874.542395479977,4857.007875841047,-1310.1418347789338,-13228.266692218278,4913.740211045476,8800.695083826695,-16448.432739908963,5045.916642571845,-1293.529846067795,-13211.09600783061,4932.927560743859,7510.98419263786,-16190.550446588837,4342.105524744418,-1304.7260069291465,-13218.633796873559,4943.210352626068,9036.118780239745,-17235.11164905307,4256.884410158443,-1319.7089561526705,-13237.327905169068,4922.826415543233,8310.423135132694,-16800.87732886856,4695.124711552475,-1304.2822758919908,-13209.750368588755,4914.299005329599,7175.796293415966,-16827.02748508252,4506.5094860606805,-1297.788171941949,-13239.27001048658,4922.318676082277
10184.0,-14052.0,2576.0,3578.0,-11654.0,-496.0,10311.341433775044,-14817.092035501168,3685.0281772902854,3583.5433721990876,-11667.62855884055,-487.23420828432324,9770.210921925805,-13816.55080643807,2025.958008829904,3575.30712655706,-11643.619225674287,-489.4274262250576,10333.472458261946,-13993.1391101276,1270.226502902871,3567.6149824105655,-11661.907082794278,-487.3373965845851,10118.324524258798,-12949.612348107446,2339.325895228085,3594.28465970551,-11660.85119883887,-487.99301296883823,8979.962130011907,-13169.453806748823,3090.5115537219417,3581.4926391221297,-11641.056055370756,-488.41269620798687,10053.580328680191,-14238.770507493244,1508.9496691335855,3601.782292643357,-11650.242889432395,-476.2982557764238,9883.195560210355,-13198.208834540801,2533.8435450400407,3564.7442161454833,-11661.563517056247,-488.823096452071,9577.907979183143,-14782.476995108771,3159.13006777018,3593.9412510710827,-11669.820985022223,-482.92222814308235,10343.277062061148,-13239.135036120146,2869.1205756402874,3577.889612007662,-11660.225717910123,-490.4886957481045,10735.109954051906,-15060.805444791818,3042.697242789313,3575.1557807614904,-11660.403213910049,-501.0405727488299,9865.561868328072,-13715.438025591808,2089.3173750134038,3593.844289016992,-11668.88558941141,-498.96790423937324
10912.0,-14708.0,36.0,7115.0,-8544.0,-5085.0,10635.411511217433,-15526.565327660686,-360.49579519392563,7124.084548940204,-8534.230215137359,-5088.334070289915,11269.686388412953,-14537.058419886956,406.9918787556585,7119.99607575927,-8543.94873854736,-5084.0088369833375,11688.966637923182,-14195.270011146431,-362.0783312524225,7109.566418811142,-8564.390201296992,-5096.0170490378905,11470.740716723602,-15238.000585553944,240.90017277640183,7101.616423678594,-8554.571418785552,-5081.898717440577,11855.168580893314,-14970.45812703702,393.1873581338902,7111.88381616563,-8535.81268016986,-5080.783213788055,11053.068430232426,-14484.916372123718,-333.67388326052213,7131.349131219153,-8525.582528155912,-5092.912077799674,10248.12021555695,-15825.225240894348,392.8753323053474,7113.8232368436475,-8540.98484597686,-5083.771884535846,10396.741804744861,-14775.064277251246,6.472075740850407,7118.415690542273,-8547.615860460186,-5086.283118055259,11182.984311469483,-14619.957989268896,310.273330814462,7131.67657091863,-8540.523795797022,-5073.576904780682,10953.681541952517,-14775.046967096278,801.7232040660176,7120.855056355643,-8534.72838852456,-5074.737687366162,10527.627137328347,-14432.262231480378,-471.6631780250677,7109.12747610762,-8546.879215603509,-5077.445056814295
10200.0,-13720.0,-1048.0,10458.0,-4323.0,-7916.0,9750.841619985022,-14358.142781397513,-452.0777496754638,10460.63340997064,-4325.395489988707,-7925.9734780588,9055.064000052502,-14804.235712285443,-809.6282647616504,10464.90024580387,-4331.221723903254,-7900.82052176911,10626.760614781153,-14229.524349671037,-741.8557273881911,10460.949142594258,-4338.194958580386,-7914.005184307043,10217.72423079345,-13817.794086283075,-1081.672951174192,10454.409275481863,-4339.021022850787,-7907.74866068221,10148.919330480507,-13453.918722476048,-951.6496304046855,10463.229479413507,-4321.682032913531,-7915.92697119689,10801.20149535938,-13886.366570958304,-1436.385228908414,10457.71917931984,-4325.548696224601,-7923.323612558091,10166.70725073242,-14150.22137566014,-1604.1266058871247,10442.89287298492,-4334.791314573006,-7924.208901802559,10442.296234219679,-13232.169586640479,-267.4795173764612,10454.628344764202,-4311.847536003907,-7911.26314809207,10542.16822137592,-13480.95958393857,-1363.6532559801183,10456.441456692493,-4298.59295504409,-7924.205334583603,10440.885637841442,-13233.54737144906,-1317.8037818337161,10453.61172227045,-4318.674477468783,-7906.071125100302,9820.947151341152,-13688.60125469804,-890.3767663060628,10456.640069962814,-4322.639733964529,-7917.994910666654
9172.0,-11980.0,-592.0,10561.0,-528.0,-8034.0,9568.26062073328,-11715.245719736793,-532.9442022603546,10564.251979736446,-535.3743483377765,-8032.312091179337,9374.8335453229,-12762.806412572592,-873.6702866039077,10567.078891048712,-532.5023739656887,-8042.545798772251,9588.141736631205,-12230.507349874291,-602.6741885040345,10559.514619169004,-524.5186925977541,-8027.904561031749,9072.206243591816,-11561.214343582302,-1316.1719593627097,10560.870121061147,-516.7849747865739,-8043.727851904373,9479.816579206354,-11520.939484469349,-770.8392582431732,10565.612755781174,-532.7839112129965,-8030.419860327667,9195.48801784988,-12042.424078415388,-840.5552278004366,10569.599040515312,-517.8412338842139,-8021.859827512045,9437.96792802049,-12761.923766255142,192.00326139104266,10572.287465274047,-506.80013351141713,-8029.55401873377,8728.106531752299,-11670.759002535073,-591.4797890259463,10563.921249237826,-520.7034864842187,-8023.637081344577,10495.112918122937,-11783.28637588441,-1246.9085296795274,10553.849568377249,-525.0725039552642,-8031.599045206124,9173.982755059273,-11693.334817738021,33.349309704225675,10568.441317301256,-511.2881850571513,-8034.329558360941,8718.495545153733,-12138.139457631323,173.55300846485977,10562.695548792197,-514.0283493393698,-8029.286929962544
8900.0,-12220.0,408.0,7790.0,2029.0,-9327.0,8111.119473744375,-12908.129566852998,1356.8451745102238,7787.659404894494,2026.3793017412925,-9328.184492161268,8636.149847412156,-12499.501090209893,966.5463547488135,7794.71047791032,2013.1352271597987,-9315.739492110995,9173.813864620632,-11630.983641829669,391.00443983854547,7800.927218091394,2044.3823166013258,-9326.45438599791,9050.814256152657,-12048.297673189549,553.3446731679263,7797.236561418697,2041.7294479081986,-9323.720785874879,9171.31919267355,-12496.582960436255,-575.938667522446,7786.807377790571,2024.5194049133663,-9328.418229162347,8821.620467802772,-12196.834288793272,-18.5445498431161,7800.28918141613,2014.8403346790792,-9330.379407733448,9365.173135350515,-12023.554763697519,538.3285768363332,7803.41795874325,2016.1407866865993,-9314.50854554392,8559.884510327796,-12611.106443963115,1031.229781643538,7779.586444830577,2033.6868755632565,-9327.6822544517,8712.844510237277,-12687.357889143981,51.99982189484945,7797.084249731461,2038.4087423871392,-9332.520137205496,9486.52147073762,-12193.551922357412,125.38830031577976,7808.089944069057,2024.6057066003543,-9309.956153712457,8171.534050868169,-12270.725083237085,-1.2962400746191634,7784.93720168258,2023.9768554670413,-9329.49315276477
8316.0,-13700.0,-752.0,6311.0,4424.0,-11750.0,7747.138372764368,-13764.125700739587,-39.11525360849339,6293.285975318375,4427.02070008722,-11762.48821376486,8027.31896067293,-14351.830220946757,-304.0594671800945,6322.539645625647,4412.0600015940745,-11752.98190491157,8549.009364787931,-14402.56138283263,-363.6115146258327,6325.102062536366,4435.214733624371,-11734.026889992958,7911.901766074709,-12756.745945038188,-533.022249230484,6333.12606288672,4413.24011514141,-11739.531627836814,7688.667945615429,-14134.441209461915,-1400.2060739707779,6318.846957319009,4426.336908341785,-11743.74122961901,8778.296708375225,-13606.3485965689,-1143.5541107915024,6327.674817679932,4410.500296322637,-11748.86633834083,8298.608042867036,-13063.00522393632,-643.1237604399349,6318.560561820047,4423.239623266235,-11756.107285184042,7826.1541685216125,-13380.02666995322,-759.2148386817224,6316.307291977897,4423.299804469508,-11736.380847857428,7955.404887809544,-13919.781416564747,-1049.211213777137,6307.828806179757,4414.459723865943,-11739.549376525882,7409.61800954981,-13952.85606566073,-1117.9508035033332,6293.13358174493,4415.685703284224,-11748.604564120036,8292.14716423895,-13994.446876618897,-181.4678233082011,6309.385405139075,4440.972860856825,-11743.922417653315
6648.0,-15188.0,-900.0,7883.0,6992.0,-12402.0,6507.1380250952625,-15197.450513425561,-1119.898654782911,7862.69644096917,6997.345033075894,-12383.878525704424,6042.054261204221,-14754.995652173073,-1547.4250588127438,7864.25974855438,6989.82791112213,-12403.237673722442,7122.720079153826,-15173.583105839938,-176.56309398452947,7886.990626894531,6995.290845548452,-12401.040921818127,6631.346779123122,-15114.277968402686,-1043.3393452369448,7889.4936977993375,6982.50405120896,-12384.952063853778,6610.082127370929,-14998.1852592601,-1193.1404448243893,7867.41785504261,6989.594750228366,-12413.849843571368,7539.290823034111,-14927.753138177564,-1716.1400939303176,7864.544847825358,7001.6202874147675,-12387.369808444011,7156.656223512673,-14652.414216016916,-845.2514064729323,7876.460724244347,6998.399908791275,-12402.132275387303,6271.572591686791,-14730.400269632448,-1504.046589880775,7871.2078498702185,7002.662230174101,-12395.976692080198,6748.043707438871,-14722.91947577075,-597.491733887597,7884.986649663793,6988.991856013233,-12389.93382464619,6924.830142306187,-14141.860779903713,-1317.154364970231,7893.828206081828,6980.013659514269,-12400.852072324595,6142.252450502529,-14849.135932718229,-1539.2157056888132,7876.595373827605,6997.68118532583,-12386.67875907135
6012.0,-13960.0,-1492.0,8270.0,7844.0,-11037.0,7143.6928980912035,-15269.160408801885,-832.0238931931729,8263.300333337656,7843.145142585697,-11048.279990487092,6854.399581005211,-13879.752602684142,-1339.621316071777,8266.55831069272,7821.20730590271,-11027.860359084329,6136.560852316558,-14367.882872695045,-1108.7754501433037,8275.777304464673,7824.414673647311,-11038.499704912017,6737.920514269472,-13270.231454183608,-1444.028094923959,8274.861059476707,7849.382448840411,-11052.582759292049,6024.748575267746,-14687.697934693158,-2307.509004657263,8256.676643414792,7854.677283603513,-11033.027812282395,6058.288373590974,-13064.07500029996,-1698.4768527982778,8246.64064100025,7841.383987050194,-11036.404247712124,6529.891292276504,-14971.385457307128,-1241.1771968956295,8266.973037757887,7850.812846609941,-11037.74150475222,5742.880824576675,-13730.612091731586,-2729.8207699111535,8283.58497046186,7863.869662226039,-11037.249162828815,5839.719528927486,-14225.11065508705,-1627.3267896029286,8280.303690650162,7839.775072102876,-11043.672674122534,6375.834134036175,-14025.309267381606,-1541.9545182652457,8276.162016310578,7862.9637876179895,-11050.581836462365,6631.679994868165,-13310.573113100747,-2642.396692911502,8275.695875262905,7847.0336342932615,-11033.644456104605
5472.0,-13728.0,-1876.0,5244.0,7139.0,-8875.0,4730.84365516831,-14044.360040675288,-1685.5965913740595,5243.748454826415,7141.629011823303,-8856.24013012433,4948.048249624874,-13964.357703485355,-2502.261592888225,5246.5897028746,7136.230574561924,-8882.868113775041,5799.496239236959,-14027.823892851537,-1679.9244667271466,5235.35699789139,7137.669450701354,-8868.68901979681,4772.5914163980515,-13518.226350728915,-2530.869608133644,5255.028055349334,7145.105508855371,-8882.862535751517,4654.1613326565375,-14412.603746195316,-2074.4960849736003,5237.051351763565,7136.006086418855,-8871.710120629428,5689.9675492032675,-13669.785782706276,-1172.1987075293805,5257.558099405608,7136.745584898409,-8855.718172378734,6874.113646512544,-13510.676110169665,-1298.6062002034773,5238.551104487703,7134.423325445206,-8869.224617182203,5359.283627051032,-14507.169241117572,-1416.5600348829341,5241.3470772755345,7135.363003132102,-8862.151355000153,6040.347885168417,-12700.258779122581,-2009.4921355027946,5241.86658981527,7126.739311626365,-8891.93101991994,5173.085317923412,-14046.794557242269,-1691.7888285351466,5240.834475302807,7143.310426870737,-8880.476616155916,5544.221673400908,-12965.042605103392,-964.3711764808917,5247.6194503266115,7157.737790436114,-8862.66836032826
5816.0,-16160.0,-1300.0,4125.0,6534.0,-8762.0,5657.9227935805675,-15990.385327695121,-1543.7904759780515,4130.803874536572,6541.2965456150205,-8748.955860639124,6481.042713266975,-16232.596115533539,-1216.8411637616525,4126.227668651462,6524.87113870795,-8765.85611448131,5945.528382361772,-16654.55768662221,-285.6152999125318,4114.788453781278,6518.969158489706,-8774.290454838969,6855.31168587577,-16002.573030444559,18.79969932406857,4142.342523732032,6527.524273062639,-8770.59629672402,5631.997255973898,-16618.573585466063,-1123.0172606972453,4129.029656699818,6523.138388385754,-8754.102380485068,5583.456252411361,-16774.47953749097,-1345.8321035724293,4110.93293644768,6527.727243688812,-8759.282187287536,5763.78304904092,-16220.324192230893,-1947.5003180733327,4128.467793186797,6537.022349702902,-8761.163789017717,6564.149350324234,-14838.660291939634,-1691.7553062437669,4120.327393993214,6543.816668899074,-8764.737363861093,6045.225387968186,-16131.043707192195,-773.2244920204544,4123.98077376866,6531.718555015318,-8759.818909173064,4980.895625198809,-16128.125585022126,-1931.9725233421952,4106.021757339444,6542.047256352613,-8754.834783157727,5107.198549569004,-15780.917073032644,-1363.386260909426,4111.503449153296,6532.483400107857,-8767.18244619071
5308.0,-17456.0,-996.0,5987.0,5504.0,-8864.0,4798.128922030408,-17384.62095961796,-1714.5628577422794,5978.763561895956,5517.163483306349,-8859.258622912976,4557.340653865427,-17754.18162105449,-847.2759486802058,5989.5798104258965,5491.015296768281,-8867.819419977195,5238.513358395031,-17198.29306501059,-1125.729081061832,5999.489051845755,5501.457345382344,-8866.911347004072,5507.574236550095,-17180.629034530088,-2042.3087981454646,5996.46957959723,5523.005949201597,-8870.130673845164,4507.16468512785,-17478.380338746792,-480.6027584764897,6002.582128635384,5510.423403739221,-8864.342671803031,5935.843757017684,-17296.005973877614,-377.92649259669633,6000.3587455044935,5506.761250519188,-8864.307027622035,5411.360217649181,-17497.403679878797,-671.738700025087,5974.467577840378,5494.282738693004,-8867.301243646854,5623.421155980233,-17395.55272765864,-845.2688433943057,5963.3686017619175,5492.631294584225,-8859.260685430207,5664.712813683678,-17918.576802359945,-934.4707918397986,5994.029625314578,5500.110106533755,-8876.901426119959,5362.349373906246,-17258.18198882058,-2032.8469567452032,5978.377456933057,5492.27187174961,-8865.32807779537,5210.432619761639,-17443.617286248355,-279.3872387948802,5980.502285957359,5498.287226940564,-8850.542791056698
4708.0,-16300.0,476.0,7455.0,3486.0,-8422.0,4614.97229653915,-16665.554864164907,918.0427518205258,7468.967261881146,3478.738529199371,-8423.55797241913,4208.903714212116,-15612.614700528511,-108.18047092590905,7454.954796544265,3479.2113621127737,-8423.599471744054,4830.804537891217,-17166.840936349145,831.7172833994439,7443.262538953514,3491.939238881809,-8424.315591475408,4531.231185698063,-15890.996493589226,595.4125485368489,7462.874354772038,3476.8404067718257,-8422.549415721216,5163.912545413667,-16136.077619119405,726.7910582959513,7478.978318355013,3483.8675252373964,-8438.93147699148,4166.739146302871,-15752.490291067605,653.2641933145864,7465.993337368305,3494.021868359545,-8409.519043441976,4605.248409606301,-16186.402676972262,670.8094976451316,7460.699423523698,3480.794115854057,-8425.124451737815,4428.912031041805,-15974.145758358578,271.36579703667064,7467.337503992166,3492.782263405626,-8403.088017209227,4581.3489683942,-16609.91667211826,386.4022597579703,7453.359903228591,3491.1737934695125,-8427.401725854585,5715.65133356042,-16212.16715132343,26.60498343045174,7470.310319835116,3465.6368403383526,-8407.694834547801,5298.173716080433,-16303.293309566463,312.6634234987612,7443.46551290901,3462.650748447323,-8411.021197792768
4856.0,-14532.0,1796.0,8193.0,1551.0,-7945.0,4977.346341062104,-14641.87581921304,1460.9417765969756,8183.674669787486,1540.6808028460534,-7963.759491810732,5798.745554077646,-14977.979521697422,1953.1914851759245,8191.457181932391,1561.8495215044738,-7949.278589901168,5403.189386208795,-14600.31108992303,1319.9567479015382,8198.52410430342,1554.5384768199558,-7953.155761755142,3646.2578222153843,-14781.944646160122,1880.7112380597093,8207.249629007274,1553.4632194055903,-7935.768501741984,5095.923900480835,-14120.861798521033,1459.919812300344,8174.011914749257,1547.9151238743066,-7938.290306065149,5682.654929556778,-15105.752178811836,2015.309284333859,8189.944214340039,1546.386762906033,-7951.692514359788,4907.178501072165,-14408.540075688374,1451.217524936048,8188.987391540545,1564.5770531659255,-7956.250588057717,5555.460606777113,-14272.984121807747,2272.1503610458817,8190.501830005182,1559.2692029921018,-7942.963812495568,5326.379513929582,-13685.537048669466,1530.6503220629697,8199.663187430315,1549.8286151319264,-7934.894287585664,4269.75571777583,-14535.424902427849,2426.2978988650234,8195.00853781681,1539.662823361203,-7945.836740112143,5285.969187628456,-15050.925324952383,1446.529027246838,8187.048884217327,1554.7430350251498,-7934.617336266929
5220.0,-12416.0,5060.0,5869.0,2100.0,-6028.0,5726.353012213218,-12642.684277022618,6186.9325207647,5874.767396079806,2105.9853010280335,-6017.01771749117,5388.436909964552,-13412.882737176387,4695.302970997,5872.709121625885,2112.2512681428007,-6039.616384238161,4920.271572299092,-12340.15271307191,6175.303880491461,5851.954825538845,2104.560552966587,-6041.059221396205,5394.616912111883,-12735.910831834424,6139.847051717126,5862.0113220338035,2093.532942781938,-6016.510046054447,5226.580326859677,-13108.573103671082,5038.416974447863,5887.231947884181,2112.9252701734717,-6009.303322905058,5352.9740779445665,-12716.828890143692,4629.6124312559505,5877.089355723746,2104.013560982603,-6025.680296304562,5415.200985703794,-12297.786052212332,5500.115428120353,5850.590955521238,2098.50389462388,-6025.9303042650645,5902.297836086149,-12379.42666194529,4750.141240066608,5869.2577592754205,2103.8967124370256,-6026.8772628266925,4804.904642366896,-13263.277005735918,4105.189941781871,5869.46202342229,2102.7454093519855,-6037.7715470617195,5370.978860646952,-11662.445511313712,6438.528819621622,5880.201175972212,2103.6640923804816,-6043.190489178946,5519.332733442858,-13083.915882421534,5533.774576887702,5866.34424816272,2116.167826087697,-6020.243976995702
7004.0,-9188.0,7000.0,-159.0,2837.0,-4975.0,7609.2173568774615,-9927.296923570873,6574.033196247692,-161.90509678461893,2827.148646005598,-4996.418968347844,6196.748004883595,-8193.95883432743,6470.641819864144,-161.0785635976795,2853.988258896579,-4973.480769654732,7946.494601346666,-9607.59863723394,7271.624757265957,-167.46891869001198,2846.2097016841917,-4990.712154817803,6946.061577320126,-9594.024433773278,6811.609103651493,-142.889046998776,2819.215320159448,-4967.117865472039,7043.084113039912,-10203.899994128395,5867.555912427671,-148.9481338253473,2833.954481850987,-4962.09893151873,7541.932958318485,-9332.488458079164,6786.435306076664,-149.5175505705064,2831.8646420410637,-4962.427860539599,6463.691035453869,-8909.024673511965,7515.109590706725,-161.68201883762544,2846.4282163059097,-4986.877742761289,7216.762580758706,-9363.663802724117,7306.384471528935,-164.60827783959948,2832.4500499508567,-4969.243433917883,7682.275509710119,-8185.184439896024,6272.418186868653,-156.3563923354464,2824.932864325612,-4966.322203865203,6216.333878673692,-9723.638160945331,7227.23998391401,-175.34799934492406,2839.0264010887327,-4974.998043037031,7272.1760506656465,-9606.908071132737,7423.398881361302,-150.34269370214002,2821.8665344897963,-4979.096556135824
8628.0,-15732.0,10264.0,1244.0,2334.0,662.0,8865.632087790995,-15715.57458703679,9619.471768336096,1227.4031818085875,2322.1318985793437,644.8380242108059,8862.00663095656,-15931.161323048485,10188.547208905597,1259.5382447409515,2325.1082709955685,663.1131572421581,8141.442375000031,-14757.480740445804,9986.244267645938,1248.6496200416311,2356.372819937492,664.9795763279903,7871.629035171421,-16208.848938800884,10302.124593532637,1251.281553111839,2346.948032879998,656.9378738251091,8160.975022364902,-15951.035899928609,9212.86550552466,1236.22018617008,2329.448549298743,666.7534848087128,8236.221077610706,-16252.94956670686,10040.412593842342,1231.6460485443731,2321.0671470190505,674.0373718353057,8777.332129691215,-16177.722303549273,10502.295580006965,1247.4508302933832,2328.4166798302062,654.9954157377769,8149.32232466178,-15269.708881051274,9371.579290142969,1243.6601387752355,2334.173390141994,644.9876831098743,8665.285988868009,-15930.778895621572,10483.821383890692,1239.89710980957,2342.5676075531187,658.151049393022,8897.902688579652,-15154.703612609817,9798.560081630458,1228.9993830512406,2333.0645993687244,674.1356753378931,7940.163412115061,-15578.235906959904,10305.847101198602,1242.9095129820598,2313.63265447143,659.5027500800788
9136.0,-18316.0,9804.0,10568.0,3576.0,1743.0,9701.471551427594,-19068.94587401595,9852.755468174239,10589.433576853971,3548.7827815760493,1738.188562017178,9298.55818111375,-17954.0036910051,10079.026067894933,10572.492867042245,3566.7901173364803,1729.2063372045966,9209.408974694446,-17640.68204284679,10305.106870284873,10585.853642601902,3592.0801304435117,1753.3863462803602,8826.76408296715,-18394.08068334027,10300.633297686305,10578.456597119488,3551.131852977286,1751.8051368066313,9247.678114463566,-17702.7624849607,9760.395953768028,10556.528321316626,3577.7363876268823,1722.3477701169518,9414.990308925733,-18877.156664950606,9663.59281603035,10573.308159587501,3561.0571352403563,1740.483263859915,9285.132118932472,-18994.071744921228,9906.880469487194,10555.886183648772,3583.7496041532977,1745.5477929764018,8683.15681922155,-18458.72522365771,9442.576769670432,10562.916251989218,3574.281054899281,1758.0424889989843,9481.007223612321,-18584.60821013626,10115.194388729531,10561.762673599995,3582.311434427284,1743.097993988022,9584.044069867801,-18700.50215453714,9268.634284793687,10559.896595779319,3573.4630895903056,1750.7227006782152,9573.94341319802,-18887.71903926501,9106.77387236789,10548.003002723835,3566.028538055847,1750.8720115628453
8696.0,-12348.0,6636.0,16099.0,6039.0,3877.0,8319.789916237003,-12573.873863610239,6564.76826404147,16108.408093997288,6024.21672750959,3862.988276099952,7496.300127291215,-12548.11130431914,6745.692545235694,16082.543420924692,6039.626449537201,3872.8956425037727,8410.61736199216,-12583.178162828333,6469.193011765678,16098.20133968005,6014.650500545132,3853.7498372831783,8884.679693518245,-12286.665605973922,7127.774351198857,16087.436435877536,6040.328047810573,3885.506148559784,8583.671865364751,-13672.772370972754,6023.652369981448,16114.41147825754,6023.46387729951,3882.4405517688106,9181.66165665857,-12367.74570666795,7052.561933128491,16104.764474952595,6037.414328011573,3880.564322860318,8600.124127155312,-12904.279881626464,7450.846008566308,16085.33155726457,6026.3177547617715,3879.400078707755,8752.798526210998,-12326.63508172223,6948.850865445469,16090.12119927803,6019.7629420729345,3872.7133274601674,8487.196864403133,-12204.687276914925,6612.7505993103005,16106.071661085913,6040.786774396308,3860.426672373786,9040.982101182597,-11943.37787031253,7045.346476229117,16101.214475947088,6033.581414883963,3860.7786129310975,8731.006657173648,-11665.796251102056,7115.952236981021,16109.597177742418,6047.427399315737,3876.097719432156
10124.0,-12980.0,6200.0,14315.0,7982.0,7727.0,9514.221866701788,-13070.787232695104,6194.864289393796,14314.353728222854,7984.976544330398,7731.019442799168,9671.142570323911,-13018.20216426323,6618.96155537111,14311.117562986146,7991.730656043485,7738.37886773569,10012.29453975226,-13476.13828557728,5479.324853218875,14311.953793707726,7985.283329980034,7718.705479574739,10188.787815266693,-12601.283123736728,6028.798919890406,14315.908906166207,7988.434316811072,7721.8118240107515,9548.07365086403,-13343.89682973104,6826.839085457422,14303.169483202912,7969.474650170312,7741.0087244774,10136.53037542284,-12379.069272755813,6381.952265808976,14322.49441115354,7974.073411665495,7730.2783456494735,9352.798300721739,-12752.123046423987,6028.162746993873,14334.877298994992,7970.478231129491,7743.1828025570485,10110.863923521852,-13592.51197125238,5962.662630638065,14327.324863544185,7978.930331631052,7725.62755962889,10087.43642114244,-12941.233486965251,5849.918306535296,14326.177330929791,7982.267473451257,7724.9523462880625,9587.195280120155,-12508.854874917715,5701.845969444488,14317.894932384395,7971.950977271407,7729.502422601962,10594.790185194704,-13513.453583826531,5973.546301585887,14320.185718873192,7978.562033839797,7732.123618156072
8644.0,-12716.0,7480.0,15526.0,7731.0,7216.0,9931.092487801914,-12967.817805074335,7166.343566722246,15518.43570057171,7716.057486258843,7209.745781279901,9000.802432075605,-13754.658993601211,8081.262488910118,15539.002316330956,7720.141390341891,7208.920614179508,8776.575422713151,-12455.023281269298,6774.004461205477,15526.315751889195,7716.04064661671,7194.494568390733,7790.17286087934,-12886.518444031914,7820.413877400375,15541.818014733224,7725.531612088014,7224.45454657775,9597.762864422959,-12159.556442974435,7523.156505644294,15529.576598606252,7745.382844230617,7214.846246900695,8113.386160211358,-12442.583139940312,7193.034556868323,15541.936844374028,7719.160894042206,7204.084897915798,9382.916063108763,-13918.8744866333,7834.110027000628,15520.853712410251,7723.819913957668,7214.628053765992,8014.554335586205,-12280.900410706043,7562.686269383255,15538.559557766272,7741.529080885785,7213.689990528251,8992.030527419785,-13097.279870576018,6967.519660763493,15521.528516141509,7746.758494809779,7205.3005549752215,8243.50410302195,-11565.005117854462,6574.685401805635,15529.943769049974,7720.582618062186,7202.992655859897,9154.185041426015,-12441.598685757552,7648.002094599347,15532.258043820726,7713.555675967664,7222.849306262171
8604.0,-8476.0,7772.0,10976.0,7637.0,6036.0,9232.925013216558,-8225.543955367675,8316.350557534717,10975.838091918708,7620.337722934969,6026.375334218094,8976.623631569528,-9054.667535809713,8172.516855109627,10983.107433108198,7640.763775312906,6035.682562888557,8604.397117739365,-8625.742340023999,7991.929695438412,10968.951820434393,7629.530522181334,6026.548213678632,8980.389808962838,-8184.069070751779,7420.5756185319915,10978.09296604609,7644.548062647493,6026.720005476783,8311.655981092956,-9023.085804259368,7844.490244671114,10978.477610639271,7632.001951865734,6045.736197053633,9479.398392758796,-8833.512394406327,7281.174465837067,10988.47818473824,7652.5642181642115,6024.593530049242,8024.694222595896,-7628.368557102715,7622.546365347987,10965.154055996996,7634.497958320586,6036.2063396433205,8993.78089901981,-8526.773275699461,7513.151773521047,10966.19758952941,7627.268531649667,6026.2818718083145,8075.805434556432,-8287.08387022814,7878.462412115102,10982.67624805034,7638.994592835077,6040.508673122486,7676.638267205232,-7831.539580898614,7737.7775108035175,10982.367869654832,7632.952101966869,6032.487067053792,8777.591017328275,-7879.243486339605,7370.0349662908775,10989.992609394087,7629.860233380446,6036.002960096629
9660.0,-10676.0,7732.0,11814.0,11394.0,8695.0,10051.255724436038,-11572.46652567094,8251.756722298762,11791.969806051986,11406.136177689435,8683.700132881604,9963.0144198229,-10423.828680646935,7261.5296673745825,11828.368929428394,11385.809227509377,8698.440652536066,9538.743710640241,-10557.12805605725,7766.8500728292765,11805.436941949127,11385.785777628374,8698.491298492996,9521.193018432963,-11556.771172280603,8175.981198387834,11816.37323871171,11399.066363608506,8693.28349999593,10414.532699288444,-10551.280382335362,8010.814696015199,11805.94429518586,11398.442383909349,8697.68656523572,10417.2212385292,-10446.991234667763,7964.8033434704885,11829.062048010985,11412.270914963545,8688.81903576519,9587.953529137587,-10880.840477898771,8254.493267159502,11804.221818347087,11402.103617938668,8684.015709810687,9607.422299690019,-10501.531663603522,7796.195507331465,11806.29604313567,11394.388002428896,8695.137246942582,9580.936633485047,-10841.17646140203,7498.394094435312,11809.034118472835,11394.86828762118,8704.95508134043,9616.695222279288,-10373.29388802019,7583.266911922933,11806.082249491601,11368.913624654202,8688.84029508795,9438.591208937127,-10467.093307465135,7927.839087780531,11815.368101122696,11376.49826331269,8710.310345630833
7736.0,-9000.0,8576.0,10064.0,15704.0,2294.0,7474.861483812846,-9376.874680146264,9004.07985940391,10060.608406392501,15685.9580280419,2299.4098539648085,6983.555029489009,-9042.163522892959,8527.141052374509,10036.181786370156,15691.963612277483,2279.2019463204706,7890.432330828544,-9317.743998691123,9211.99988457658,10056.737226783776,15693.792619670561,2300.0350015599874,7519.843927561249,-8746.841603856086,8342.084949484539,10069.729138591147,15698.612369591861,2274.7786724324133,8193.184721043846,-9998.311014638564,8531.456000016302,10073.581395536856,15708.922400071302,2288.6126063805036,8132.206996234429,-8788.068673016305,9283.708571590145,10058.360226087929,15723.151061891738,2289.2863410729724,8633.882238627666,-8797.80818262375,8782.70327870928,10051.690058961549,15715.684970242368,2273.409984030094,8209.684555162095,-8628.498044289689,8636.072656817805,10075.43883259011,15699.004487535862,2306.7543792410784,6919.148522164097,-9485.87957362623,8685.345381515144,10068.555001590632,15696.90875848745,2286.7846799053978,8251.41401815432,-8752.743946139395,7573.359941417061,10071.719233897262,15711.240605364745,2274.1788848746733,7966.228122970854,-8352.59338149573,8421.034470753237,10068.638999884712,15710.800519235108,2304.5295786794604
5820.0,-5808.0,8460.0,7105.0,19312.0,-1873.0,6178.025619082731,-5575.908928303497,8046.792170246909,7116.309217076794,19308.457346900108,-1858.9513218469547,6108.150492664113,-5483.557976729533,7844.955229087052,7109.259012839427,19326.70787437376,-1869.9102882679415,6158.171431877753,-6133.380382393046,9446.093579489358,7099.074633747043,19317.34602455898,-1881.2772816903862,5075.254566029218,-5126.908713119818,8098.096904639008,7103.683346507647,19313.45898144483,-1869.479275628765,6235.318418308589,-6078.502381433319,9222.569976430392,7108.871624195163,19308.45335103264,-1868.460754720004,5916.768968485354,-5976.39364240667,8661.875297325423,7089.996208683804,19322.981628200236,-1871.6631080748327,5685.956820725825,-6829.1806567169415,8496.420986893634,7102.021568446838,19313.432499110542,-1886.0606763673618,5514.120873353305,-5975.166813238572,7925.33409810105,7100.9726182922905,19309.894368289715,-1885.5716842737907,6252.099483946142,-5551.124260826144,8764.568630584836,7098.91028891311,19306.26604601159,-1870.5607672809303,5055.501685601201,-5221.065282760674,8221.323554438848,7115.59070605831,19322.467639665098,-1872.2232147630612,6288.785447970577,-5587.867108328531,8762.903042205267,7102.284517890333,19310.3633685283,-1873.4331526478684
3336.0,-2544.0,11476.0,1366.0,10950.0,-4890.0,2181.7727817356567,-2934.7016168679643,11200.968867594067,1359.146318848912,10947.813444964313,-4881.254713486253,3711.826081621654,-2887.3897081831515,11570.278451630944,1362.7908717302666,10948.956017747918,-4891.582220241947,3602.3571404125323,-2070.6036468766433,10996.564266650035,1362.7250236408327,10950.774296364889,-4902.299569322036,3555.322965714528,-1987.153559684512,11392.372874727102,1366.891867894095,10955.090717550782,-4892.7054876968505,2800.8856272160087,-2407.049773758827,10604.331155181502,1364.5341875999377,10969.525719671312,-4875.777925688969,3106.4643669837783,-2870.2741925610844,11623.310424587437,1367.2819380641733,10952.746452739662,-4892.031370029848,2878.1436315326014,-2513.0487336722854,11646.461273397372,1370.0220814236584,10954.538228464533,-4885.753774857194,3908.5367348539094,-2232.1795692481314,11394.268294896163,1356.7877060831058,10960.898917634087,-4879.868266810446,2306.7117362298727,-1592.905332651474,12004.32931587183,1367.186175148544,10947.946522949665,-4893.450385743362,3499.566960069152,-2690.4924433655156,12179.056807604318,1373.6341758487674,10941.766973496548,-4889.865070500172,3827.5941269226046,-2559.2627087676988,12167.991719412346,1375.2672910649687,10938.737701701166,-4911.729877430102
1824.0,-4024.0,10544.0,-10527.0,13979.0,-8422.0,1492.3895018686444,-3915.675859624128,10607.396497552381,-10520.420934915986,13974.910890465033,-8401.872111751763,1721.3470141893267,-4328.2841484860855,10849.718535391181,-10525.092458254876,13993.65360530581,-8425.246896367184,2371.9900662539476,-3520.47474629077,10372.81385726198,-10526.003783848,13987.149667824095,-8426.976292292718,1045.3875864033748,-4952.225184446006,10242.723144837135,-10526.679412938707,13978.83128060916,-8432.155907200058,1885.628402530777,-3378.4341594172756,11368.736300085167,-10537.990830370834,13965.252837642052,-8430.443153234402,2183.119408613491,-2980.140280622357,10660.229479239297,-10513.569872486189,13987.438719502024,-8397.825677030496,1854.746754776448,-4088.387757930744,9795.53162842845,-10526.1721730498,13968.623696486278,-8395.553613906146,1916.0010344492039,-3914.778840185516,9169.458983571236,-10527.992091561187,13976.954747363903,-8415.916549408885,2631.0725305748847,-3654.7345729992235,11663.969135362275,-10542.054489875423,13980.104973196412,-8412.508858164822,1418.9770322936115,-4348.664751946112,9626.580255094317,-10528.873035360719,13984.684548920426,-8428.118862051684,2061.808517403704,-3952.419514402208,10802.334220676668,-10533.386365535986,13980.279725973594,-8396.241452161612
3756.0,-11344.0,6452.0,-15549.0,7115.0,-8049.0,3341.0720428491945,-12020.294537638732,7153.418512376533,-15544.624079602852,7104.90263328144,-8046.232815403498,3880.1934354841173,-10885.129300357743,6596.764099588508,-15544.380236788355,7099.7702187791165,-8038.000863721412,3804.38139754872,-11544.495015818935,6219.9059452407,-15531.018610677742,7105.027603880606,-8050.187712017015,3351.1439161439266,-11103.168869999196,5436.628046535367,-15539.066308527634,7117.530403391163,-8041.525719919429,2778.8829964912447,-10871.857306481146,6296.995086576018,-15545.68129739,7106.145093906414,-8039.45526949361,3167.647546590425,-12385.426013067747,5566.015797917992,-15549.275162826409,7123.722081342801,-8042.129948529221,4238.467313800936,-11491.704382101505,6261.171919800547,-15553.91944307591,7130.920530307105,-8039.362823705208,3550.4945676862567,-11843.32805407004,6520.036474738977,-15547.514454008497,7113.852934940862,-8044.8293383421815,4246.424002215842,-11593.749544106677,5493.364058534442,-15557.048679521973,7128.016597354767,-8048.201006357637,3274.84925246147,-11693.77837089312,6714.259236182081,-15551.158557910008,7110.155091720196,-8034.864714773506,3123.68137457568,-10985.425018275624,6590.577406127787,-15526.707023712666,7124.151567978848,-8048.141433978939
8456.0,-22360.0,6012.0,-10620.0,1465.0,-7687.0,8591.964660705695,-22548.593478244053,6467.761115034151,-10621.49118537042,1446.2827805222882,-7682.94810406966,8770.500771414214,-23598.115449659806,5897.839463601661,-10615.495289442364,1478.6937542188168,-7675.980124047908,8040.312028391338,-23021.221680938626,5099.111278038748,-10642.249945582926,1472.6341497663461,-7679.931791272393,8569.75562742405,-22339.008905554336,6015.329813158453,-10613.634343277097,1473.7257098923658,-7672.876245582037,8410.539435042036,-22750.274857232205,6394.607974453888,-10616.218869426531,1476.0610545066643,-7695.91938867437,9049.918372089203,-21889.8705500658,5999.018371613094,-10628.879552936623,1472.7366482561176,-7700.603473507875,7344.816780339957,-22484.99130978512,5697.127565853445,-10618.451021588398,1468.8686271082238,-7683.388130101271,8445.356767660214,-22576.130570673526,5854.125903910288,-10636.215228629331,1449.3057204683575,-7687.892208515769,9238.767472316893,-22573.232478326325,7011.0173663673395,-10628.288677349321,1473.8185362141317,-7688.631806274252,7520.843229231394,-21803.786166081838,5168.4973647918705,-10617.590264139473,1457.410594106989,-7668.133860587585,8660.955719282729,-22365.193351925114,5458.584021584057,-10635.104573874847,1472.80862078098,-7693.638242939402
9652.0,-26060.0,7708.0,-3203.0,-5604.0,-6548.0,10187.340678106279,-26043.936677120888,8453.02748206925,-3214.497008839043,-5612.106605442177,-6539.692372602557,9701.349909093691,-26313.377973005034,7696.930585178884,-3213.757454323817,-5605.587484772783,-6541.016954393206,9115.606297209439,-26333.70260584233,7177.744338289035,-3208.483437764082,-5596.851752918471,-6550.382006757758,9134.007725466501,-26086.66293882272,7419.316238425894,-3214.1897017891083,-5602.72349770102,-6530.917439991558,8301.053872354236,-25949.451702421964,7725.101615413439,-3200.8628707565554,-5606.933881732991,-6549.369620873085,10164.14925366079,-26205.53767238253,7890.024526320935,-3197.1684457622378,-5594.982333217519,-6535.486731555822,9695.260008961526,-25644.741514731897,7673.620408160078,-3214.120865393654,-5600.053829585484,-6542.381246945511,9712.107540239094,-26170.86866966318,7332.869704543194,-3211.828951333693,-5602.482645337393,-6532.731534445803,10068.693774465159,-25550.924528153424,7800.559586065166,-3208.7732216881177,-5603.702914927291,-6556.329682487405,9395.39487379689,-25721.9393185661,7746.240455657598,-3208.545995852245,-5588.764584554612,-6551.037198420995,9840.180157941917,-25541.74485962797,8122.5321018246,-3214.9305596289714,-5593.580147841211,-6528.711624348828
11248.0,-22780.0,10804.0,-575.0,-12654.0,-5614.0,11179.113009350704,-23193.065385735445,11081.141580367876,-558.3285724089726,-12677.115148094892,-5622.023252444261,12328.444165760238,-23012.746764810112,11430.028095695337,-571.222247380776,-12651.273950415494,-5619.2315934494745,11961.1012279615,-23331.840751784468,10015.820877781145,-595.1725454962695,-12654.079650774502,-5621.413001785406,12076.636838930006,-22517.040676199802,11195.01137826288,-564.0783476437372,-12637.205412139225,-5617.675828951793,11747.543389868664,-23193.782901564744,11182.13192063372,-570.6340812577686,-12674.227701089945,-5602.279286650664,10952.655697007014,-22471.6423379145,11549.311142035653,-583.7000528893427,-12650.871687524519,-5614.737219251204,10401.20269690885,-22828.745930284873,11041.594221978918,-584.0873384071749,-12641.796635434168,-5617.070632936881,11207.056823943336,-21589.373322774987,11688.32467259182,-578.2400992076964,-12647.148961711106,-5613.752370297519,10913.45307118493,-22691.758524565153,10921.664430612227,-588.6760562341618,-12655.593326775273,-5602.671072785708,11056.83398823806,-23042.44918914883,11000.73443188276,-572.4106049957189,-12652.02903008485,-5624.516140509809,10770.366147919493,-22515.74740924721,10868.700324624995,-569.3360019850736,-12663.542415262727,-5614.263628036356
9704.0,-13572.0,13004.0,-1880.0,-19715.0,-7929.0,8969.91877656231,-13532.795235727908,12643.928244970863,-1883.4314036069725,-19725.917007371034,-7935.813073594221,10184.901450538102,-13967.658196660836,13791.79102638666,-1881.589896535549,-19721.063477445878,-7929.592910275502,9554.336008441911,-13138.00292909007,13043.714133362013,-1875.019451120576,-19713.93499757499,-7931.387473534987,9093.603490869516,-14424.130169516273,12616.25752316711,-1880.1579786173265,-19715.307325872494,-7919.367432339386,9581.46582321518,-12897.073931210147,13760.883028366134,-1874.7834708279659,-19713.53156127853,-7938.8127682189825,8981.024497186123,-13475.75688075903,12507.156114653735,-1879.9018305783832,-19720.582181455233,-7923.165332384356,10519.170944958776,-13625.751228295396,13129.332474296869,-1864.2233798309262,-19726.478868433354,-7936.523771357152,10175.688082948313,-12395.056181547032,12543.716266412248,-1898.239675304076,-19710.67934873366,-7923.684330517174,10106.359211562418,-14169.163414162475,12220.870353717137,-1883.2166949740063,-19708.56131045521,-7922.556862305489,9315.396642797203,-13985.339399559061,12980.542130611791,-1871.8572679928948,-19714.480452299376,-7930.450346832997,9359.45085287038,-14115.04191079091,13167.85084512342,-1870.3806156373378,-19718.37263592496,-7924.767416471953
16048.0,-6684.0,4940.0,2478.0,-4573.0,-5893.0,15963.536270929666,-7301.042314479322,5585.374617362015,2477.440209290612,-4558.728961833775,-5891.031600688313,16218.96396773249,-5123.113510351703,4442.696931878411,2480.5610319718917,-4591.813277406368,-5896.705141213015,16179.589851962584,-7104.233836232059,5330.969583073393,2473.6559810334916,-4584.435471260402,-5905.943143404976,14642.454216691794,-5886.9618259728495,4693.559089095484,2475.7210135197633,-4564.938593123488,-5885.696935980103,16403.154720044855,-6300.478026455378,4937.765211886964,2461.266392746337,-4588.950916802135,-5897.810146750645,16280.303054460277,-6635.625682540013,4503.533250736136,2458.175885342049,-4581.523792650383,-5904.4655769612,16049.646379461807,-7458.531946509506,4913.415353865691,2466.5906299362227,-4556.713165628644,-5888.758327682652,16362.267869310554,-7281.3563976071255,4655.480034491264,2471.3136872357463,-4577.434240959901,-5894.325443162019,15865.591006674978,-6852.675321296807,4743.787230963315,2459.9728522229134,-4570.597963716723,-5894.268208271682,16060.719863047607,-7041.940565930001,4947.780898035845,2482.8259779636887,-4573.243684273962,-5894.415909135723,16094.605780165553,-6814.921424218073,4741.4148446396375,2470.4731907849273,-4574.821082244889,-5875.484437684222
