IMU1_AccX,IMU1_AccY,IMU1_AccZ,IMU1_GyroX,IMU1_GyroY,IMU1_GyroZ,IMU2_AccX,IMU2_AccY,IMU2_AccZ,IMU2_GyroX,IMU2_GyroY,IMU2_GyroZ,IMU3_AccX,IMU3_AccY,IMU3_AccZ,IMU3_GyroX,IMU3_GyroY,IMU3_GyroZ,IMU4_AccX,IMU4_AccY,IMU4_AccZ,IMU4_GyroX,IMU4_GyroY,IMU4_GyroZ,IMU5_AccX,IMU5_AccY,IMU5_AccZ,IMU5_GyroX,IMU5_GyroY,IMU5_GyroZ,IMU6_AccX,IMU6_AccY,IMU6_AccZ,IMU6_GyroX,IMU6_GyroY,IMU6_GyroZ,IMU7_AccX,IMU7_AccY,IMU7_AccZ,IMU7_GyroX,IMU7_GyroY,IMU7_GyroZ,IMU8_AccX,IMU8_AccY,IMU8_AccZ,IMU8_GyroX,IMU8_GyroY,IMU8_GyroZ,IMU9_AccX,IMU9_AccY,IMU9_AccZ,IMU9_GyroX,IMU9_GyroY,IMU9_GyroZ,IMU10_AccX,IMU10_AccY,IMU10_AccZ,IMU10_GyroX,IMU10_GyroY,IMU10_GyroZ,IMU11_AccX,IMU11_AccY,IMU11_AccZ,IMU11_GyroX,IMU11_GyroY,IMU11_GyroZ,IMU12_AccX,IMU12_AccY,IMU12_AccZ,IMU12_GyroX,IMU12_GyroY,IMU12_GyroZ
1460.0,3316.0,16456.0,1738.0,1334.0,283.0,1475.1912106805516,3384.604671452246,16387.066231462348,1722.7729069098411,1339.6454781548093,290.2064390675301,1486.4183050966583,3236.9406021222394,16443.55026881954,1742.8127117992412,1326.5698293813357,279.8762251126316,1697.7936559353504,3378.9761752774625,16523.339413634025,1736.2506855725726,1342.33628950839,287.5721403335696,1313.67751491436,3359.4185215714556,16488.621286621656,1713.5991445566706,1337.6903335490022,285.5599542876243,1681.8394397414213,3385.5438667415165,16382.944503866516,1738.7639894997642,1333.9053635654734,290.7971780045108,1553.621446946369,3337.126295088152,16416.03911401085,1745.896839476758,1341.0758460428256,271.52400839794996,1452.1245826607899,3413.971669013546,16436.85193668893,1727.804971337975,1329.6546449613313,277.8712307376533,1421.1976976814756,3404.4071848195454,16368.010026057427,1731.6309949498816,1338.6177581385325,293.53964122321696,1591.0170799711696,3260.3181466699825,16410.9830788585,1744.4132676874578,1351.1370897628842,282.5420597227073,1334.5495226037933,3441.8896762569693,16572.378850467157,1748.6342652497224,1337.7942238972698,280.96616682537314,1513.9828490562015,3544.1343066037452,16495.413631384927,1733.5465787104085,1327.5441397533712,293.00906594660677
1472.0,3280.0,16476.0,1756.0,1367.0,284.0,1373.3977381369925,3032.8361540414535,16407.72571013216,1758.9746124702795,1364.247271983984,302.222423420624,1434.3817553194897,3320.2566878787643,16595.06196866363,1751.1414318135626,1367.0328733425936,286.1023359660676,1559.2158839711094,3202.4592592336217,16451.344594366725,1757.1376372584216,1365.6041544916868,299.25948951390023,1531.9321776105505,3248.0109157395955,16678.57946555504,1786.5085100050476,1366.6436865635799,274.79222168131616,1601.214046417938,3153.7910708801355,16557.178949313948,1744.7868257050711,1357.6384558493176,277.02812835225626,1412.6795971122028,3389.674365689448,16474.617670698808,1756.861118137522,1373.9579271570447,282.4729418906175,1164.7368721481002,3353.747602083775,16289.541172577348,1739.183393950648,1364.8273946676227,286.6776921219025,1424.4772617588103,3219.840532340195,16549.36226040389,1743.735002047897,1380.5606714437974,283.7668560451607,1446.9671137946784,3281.3424290699945,16454.631650755506,1759.31329003179,1383.1245007716627,280.5349791830272,1455.2642876756343,3424.7474464842,16414.433953372754,1767.3710508268734,1365.045776702543,273.3908327489506,1582.0476779104677,3305.0558033264147,16580.11687164216,1744.5399031205548,1376.1128168039909,284.2463056012477
1456.0,3324.0,16496.0,1770.0,1382.0,279.0,1607.9975505471011,3397.404614743345,16360.39272340273,1768.5464599235727,1374.6946851791456,282.4702610447867,1417.0954911563292,3394.252300027341,16554.129512664065,1769.029800803253,1389.6116785288177,271.1662446302918,1428.662451420013,3310.695181748479,16353.644881609946,1765.7135917540688,1380.0171159759996,278.51152135498324,1470.4454821388424,3266.872575399589,16493.597757953117,1771.3650259093351,1376.5643830644283,275.5168050694785,1585.712499989644,3238.3038147088273,16661.0680191969,1747.2902901317939,1381.2190811706744,286.8356164617451,1368.3271424702484,3193.596359821121,16500.76927892337,1773.645728872363,1380.7039911776249,273.9110696572475,1501.0459135187032,3185.2109475340108,16543.39416184405,1762.109740917037,1392.082757107597,256.90829783342485,1585.1645110842771,3390.600038253862,16661.454313366838,1770.625546169245,1376.5754740967093,283.56290599201304,1456.660908738336,3341.8020404549884,16442.740492361983,1763.8289750585675,1370.8117241625391,283.0357496427549,1491.2447290259809,3442.2575554366185,16480.140149928004,1770.8586105698773,1394.5129748411543,281.2778836334155,1464.9056004984488,3358.617197028757,16693.876323867444,1756.2215468484542,1382.1166931302434,283.5189680165381
1460.0,3340.0,16520.0,1761.0,1346.0,278.0,1386.687803143022,3391.630940490033,16436.245616560776,1744.4463435658115,1336.3961774129764,268.59745825216663,1366.142213276992,3431.5701457947284,16716.8895121959,1783.296032743174,1364.0740490964636,279.4840196854969,1502.0479115839762,3294.2276429030508,16407.080910301305,1759.5701897675651,1332.42738295122,284.2770519156928,1492.6725747821558,3511.283629980218,16419.84736831158,1756.3417247490377,1351.7025110938553,275.92665242676696,1403.1161211351928,3232.738906072671,16494.655274425844,1751.811878568325,1345.0379860809182,293.0089966461345,1417.332856256568,3469.433747000538,16541.562937058436,1762.3525512002882,1353.732442107974,278.84274540885787,1510.822833020038,3371.0782375251156,16545.031862091862,1758.2892885216504,1344.1633613770364,287.69487284701273,1437.6079983463312,3391.0168391976267,16447.240974909906,1769.579203451223,1359.0005506248829,272.8244407692429,1453.0893044111488,3371.310305220032,16480.990415174994,1745.346908817709,1347.386668555294,277.0223964981197,1561.5624581840395,3196.603230196794,16324.787329959581,1772.8973250292163,1344.6406356315197,284.21265740149886,1438.7286683696125,3287.4188470786194,16482.444846414775,1757.8580462418531,1335.3289499933137,257.2862105772046
1488.0,3368.0,16540.0,1716.0,1316.0,265.0,1409.1392548472688,3334.5680270072335,16447.976185975716,1724.3287460246872,1320.1221100373705,276.4135544791965,1512.9973629668173,3173.5995098404455,16640.196260975208,1709.7305624289106,1332.4281308662798,272.6127422855397,1461.389098764095,3327.4436057558823,16490.621840106116,1727.8817782673773,1315.0738347278234,261.620732259107,1311.7179817608535,3406.589936407236,16514.80648730831,1708.650209716541,1335.8637209143467,264.8875469946665,1432.8253758441306,3201.2254295635444,16550.167938977833,1706.7564574432229,1301.2376207490474,252.84473881375055,1383.5361548920025,3477.762851483335,16398.839423082693,1721.8198374063832,1317.3910103295204,275.9081962969509,1384.6784587694535,3421.8052429734566,16667.391539926077,1723.1419923414737,1348.7785098628572,266.1140902896473,1575.8212483584834,3222.0485293066045,16411.13426589556,1710.544708136942,1308.6923697200496,273.8374105625275,1476.5559064319586,3322.635290576439,16616.657641857288,1712.7865481761871,1332.9459354967162,265.27643734371975,1492.6222461318657,3205.624451008967,16617.215897238566,1716.8267229802175,1322.8362224860925,262.78662537718856,1414.912678059095,3280.6906856212313,16565.411095427644,1712.0906783580917,1321.7139408659236,257.29463288294784
1452.0,3356.0,16428.0,1800.0,1405.0,266.0,1528.3957313652977,3083.243791374461,16484.755194465506,1804.2872545366374,1396.2520093754538,274.47599374024736,1432.147282819929,3273.211626338785,16456.129502696807,1789.3376555128511,1418.6020720141778,267.4642657607964,1395.2979973833621,3341.019669985565,16358.082500040602,1806.9631902865092,1398.6512825033503,283.2930697278115,1300.3683487742692,3292.0452225251665,16446.222133586,1799.7089320492375,1403.1542108033152,261.1659264590634,1079.8481305427044,3162.6778012101954,16342.312959543528,1805.689746256871,1406.5013369460023,260.22931440085284,1615.6416068516835,3384.0654158817974,16318.070348851907,1807.6553950774116,1398.5326773173017,262.0457881499507,1446.1893873071806,3308.2884260605415,16284.228753984653,1788.0992260193832,1414.7779623656547,262.81054352389674,1299.8285520706302,3283.8426699037136,16444.89492098212,1786.7790785147727,1395.0769963971454,273.01768306601195,1295.0817690762144,3404.6975389241447,16513.44620756298,1797.3492044968666,1399.428378940532,263.23075254823874,1346.2219676187779,3361.3923913183203,16500.15181035234,1805.2628566854885,1415.207500958931,263.0890365916075,1643.6950476060936,3423.885513668723,16425.23974629019,1807.3612166893256,1388.7594931605854,256.3547150620269
1508.0,3372.0,16516.0,1751.0,1378.0,258.0,1685.4363413556046,3526.846121934902,16615.26415218132,1741.7804274996508,1386.7374903786638,266.6344439849122,1702.1250089347222,3593.3733920673385,16557.34179061494,1747.2347273819987,1372.6584916198724,246.3964634014277,1447.3758014440975,3278.575225399098,16542.37754500501,1747.5689605907814,1392.2353984239767,258.9805013936357,1618.5177440029668,3423.1708229132073,16509.226606839547,1753.631737373023,1391.663456060554,255.8515142572454,1376.085627489247,3346.2342008987594,16430.38272747018,1760.3961195590014,1364.4427093525685,256.5697502903699,1536.5408992233456,3532.992234964,16393.850804409132,1745.0764168784644,1374.442487119286,268.1591843514459,1526.836106924299,3043.754972149132,16552.354619630052,1759.7365952168307,1395.7776205099738,236.95929693624734,1554.825139136151,3232.5632933677352,16459.509056405466,1738.6556497893043,1360.5280439085643,242.60228637666148,1622.3602689322777,3429.9077809657756,16570.83102392673,1750.4307712710902,1387.3628366463677,252.22745799902563,1569.5230762621816,3363.0749845277337,16371.344444955921,1755.1358312242637,1381.1213574661099,247.98934132177646,1573.1453119282808,3265.543110558423,16574.417319645116,1749.158670432118,1389.0925401594272,247.729312670872
1544.0,3360.0,16528.0,1757.0,1331.0,295.0,1511.2398444625442,3350.7910640278255,16567.89998391668,1760.117650965664,1328.674242542268,301.429201669761,1546.4991392943405,3310.0926713314075,16533.740000103215,1740.6248143414068,1331.873012507484,301.6920908419665,1463.812156516245,3407.300818702868,16517.144525750307,1759.384687182862,1336.4845457601327,299.2677218891563,1622.1345056298358,3398.533115970147,16477.787978515076,1746.9834387833466,1331.6236446509238,290.1736134333749,1559.3868360534243,3456.0151530800013,16521.483204506134,1774.8393283561986,1331.234962343256,319.8844885382454,1460.6490004198865,3160.386152942304,16715.750189335482,1750.8776291074814,1343.8360494421977,289.4935941242185,1564.880120862882,3171.9695012344964,16488.926160402963,1748.988710800599,1339.0186111524877,293.36889153810245,1634.933524416398,3546.3762559707907,16540.62526027597,1738.547758949564,1333.5013484633434,314.024390675536,1681.803054136077,3305.141274143216,16366.677271075068,1776.7532790680905,1319.5866487392377,307.97303182393694,1781.7329294841584,3172.8419978929064,16443.151216966966,1776.5776021443162,1336.9067129809516,297.7434280471617,1687.0257276689917,3505.0791688587324,16750.920621994002,1761.853065662857,1337.1207770731348,311.8903181438867
1560.0,3448.0,16388.0,1672.0,1315.0,265.0,1500.4939277210435,3277.8222633743235,16381.951217425738,1657.392574017199,1320.5375243147282,269.28774287612106,1620.0587619820603,3392.598427847886,16314.711545720842,1676.5645371909893,1318.5274595622157,275.27219072422486,1516.4196032719624,3524.041172250389,16352.718161615065,1673.0992487536098,1320.7098211242064,291.9801385389404,1693.5787727252086,3344.5504364444687,16491.5076056417,1666.6621791230548,1317.5387920773483,268.0625198570808,1375.7597701036166,3691.267661808294,16404.37666846831,1690.336335138915,1308.0673882231538,277.5162711501706,1588.5315817059097,3569.8677665935006,16366.957317987617,1682.057624990058,1312.08367626601,267.86160236377094,1610.8427170118314,3315.553025202851,16385.4977522543,1666.656800484115,1313.1498651325967,262.8617925923992,1560.0349093561229,3331.1801777312317,16302.836761400466,1692.9499671848496,1301.7345463928057,265.18617252086193,1624.8333725427483,3355.3274116286307,16470.561419982674,1653.703149873064,1314.0316064442518,264.01528774818877,1580.916663544204,3477.9634910980767,16549.6800041062,1661.348051281168,1340.3027342289101,270.14201485665734,1417.1787057821052,3291.144325694907,16404.904313838448,1667.1595135952514,1308.919492321669,285.2394347546003
1504.0,3356.0,16456.0,1786.0,1371.0,273.0,1452.7181215866183,3281.9021655666725,16388.439024319523,1785.7380286097264,1363.1774538115776,265.26607413326457,1550.1936596531923,3200.407871800514,16325.344478784802,1773.723825289006,1389.1302375506068,273.77262785218903,1323.0346965764031,3432.190458931675,16402.689881304435,1784.8999569518744,1372.8504194461443,246.84749859756326,1336.062162700125,3424.7435626158845,16417.41062952269,1780.9851166595786,1363.4668404037914,274.59911886461947,1324.0449128620478,3243.764414115993,16420.78953019131,1792.6682887684062,1363.0359819982702,292.84754042620824,1456.8588545733264,3463.494880201069,16583.394565338025,1794.5006341651679,1347.5694616954547,263.2565020144791,1380.5780966091336,3312.8899598355333,16443.139875164215,1789.4562619097794,1380.936158725566,273.8095534406194,1625.5521928641058,3234.9672713110444,16372.96476538386,1786.9608929900257,1359.603752666124,279.31682144940066,1547.561744492003,3264.7594497262503,16375.217131414027,1794.0274764123083,1383.9697931213104,287.4753338682743,1644.1007075558841,3387.175773746968,16382.824555352878,1788.0773805323354,1351.9473675145039,264.73426188304705,1438.960877549052,3308.846101721822,16248.032847316945,1788.345749180159,1354.877813035579,266.38614069889536
1476.0,3368.0,16436.0,1745.0,1361.0,259.0,1313.3756881498553,3180.3716445407636,16362.55505950481,1747.0858281986611,1357.4119397021623,257.81542521845734,1425.2364936243341,3251.5969887614037,16337.231732715767,1754.6774676995074,1356.1677603149808,268.1202732192807,1591.1680958166817,3377.9171687486673,16397.061280958675,1777.4702565409134,1357.1230643847507,257.71126241408115,1423.173037179612,3362.560869707009,16503.903165298376,1745.8632135994148,1357.845381785777,254.61539561518222,1465.6109663552108,3410.5213126877416,16645.82005072516,1743.5001171854599,1353.9813116745556,262.02399917188404,1409.9317118610527,3392.7470923210517,16608.81336251955,1743.639065027199,1365.8906825569718,269.5550372158583,1511.2520892438654,3466.6471768275483,16528.955438270797,1745.9122571857172,1343.1458247964588,253.62938128019164,1432.5466580211455,3449.4798858758672,16449.615910966844,1756.695375507845,1350.4695005500805,260.8687482726165,1332.9046838990048,3330.922617163411,16476.454259248254,1741.9085506386384,1373.3643767474396,264.4125387587801,1499.6081099857167,3603.8781517172747,16476.03451235084,1760.0332495672988,1364.6486633901843,271.4391733840495,1551.9928182204383,3511.6302040464666,16366.829157715798,1754.5036755577798,1362.8466762877392,253.74305274331445
1476.0,3392.0,16400.0,1760.0,1379.0,256.0,1418.9217257720943,3657.4133669182447,16224.620640608875,1749.284509987745,1372.270136190501,272.5192370760579,1501.1372392295968,3351.0987995854903,16388.757950754178,1759.8215475559418,1399.9386553900365,257.11928364871954,1469.2382673057357,3288.053958472155,16407.252106945816,1758.2593207719788,1379.9343901329864,263.84475202336864,1480.403217259106,3417.9391489115424,16417.48368986751,1747.7305055450695,1367.8415338180655,270.9041163946733,1375.1440903261278,3409.0216293622702,16547.558398135214,1771.3808393931306,1383.1279066129832,243.92125205254456,1485.6828529878176,3463.456676269635,16568.195112142606,1750.81264965785,1368.5197328678585,261.32048635117354,1383.6895630963324,3431.7170465071804,16562.55296912318,1759.0026980316663,1373.4926702990547,251.74888139471147,1474.1695901522114,3430.0954880773265,16424.96886626402,1760.0497511982794,1399.0021079399187,250.89393152709343,1358.6177666244168,3389.184942931421,16235.387998189013,1764.0367389922271,1377.4323327615,266.1694641400052,1601.7339970119758,3310.4727437794572,16482.498177763715,1764.3327760065167,1372.5193429779679,269.43903933976645,1368.4214013181324,3287.869380037431,16216.074612511818,1764.3635593325876,1374.0362205250883,242.3500881361733
1456.0,3388.0,16540.0,1757.0,1370.0,278.0,1405.700579379206,3449.7936147620676,16616.547320642836,1757.6207702789366,1378.0983178184329,270.3658391335796,1330.7358010164737,3288.1999021410247,16574.74885856034,1742.6800751779804,1366.615269393032,269.4468320901976,1403.615367461366,3344.8106699497416,16443.56585354058,1762.0075131587078,1383.7848715254004,283.00174432366094,1588.5876624447399,3443.2714163959777,16440.232209194302,1766.2423895670445,1362.9685609584542,265.8003036873319,1408.8568026355488,3324.611006893082,16615.010354983773,1765.9127674955914,1368.8803141317544,268.880351114884,1324.3410287747424,3391.261428449271,16539.792358089308,1763.833969669366,1360.5441495697262,281.20317434068204,1337.054417818013,3316.204230677813,16525.85029402553,1757.5880723240691,1379.7081230058266,270.27230033403873,1553.9586992770965,3515.7719680781383,16661.30977209218,1763.79330302092,1375.1238728253277,281.29419446461685,1285.05955629025,3426.9461555148955,16483.213735554647,1748.32247457196,1380.0027192193393,281.77557934088577,1345.1355719276266,3452.384790316963,16474.70834148335,1758.9722535690473,1373.5672076944074,284.4799637878118,1443.4603498622064,3339.4395388698836,16497.70421698135,1757.012191402749,1363.4827736106613,269.8378829131667
1496.0,3368.0,16540.0,1735.0,1417.0,261.0,1525.5768126556266,3387.106505560455,16593.795970765204,1744.642731375118,1422.5338741410744,262.62231910919104,1610.3621957211187,3491.5793673434737,16485.803133616166,1748.0652425413118,1404.597741616706,266.54670752808653,1331.9471098827194,3449.050416572955,16528.146308433686,1754.4129868006955,1425.5459542418134,249.16399791244896,1508.0191616886118,3201.2523004673476,16537.164933630404,1737.2614154153316,1424.4300293015299,251.992624767318,1290.6149162676895,3371.4215355296083,16631.50715156533,1734.5242184371527,1434.3598128672347,269.05069762633724,1476.9067269736768,3650.651689771661,16526.75547594628,1749.8626358170002,1416.5056810972073,265.0369704963941,1730.336309150055,3542.316407819598,16656.873536828683,1736.3808045413618,1398.482419927271,259.97578514484707,1510.8688331330393,3305.322547407981,16548.935814298293,1742.1054510229435,1406.2695528131226,266.44804291427073,1402.40737823583,3362.7413181799266,16455.196780597318,1741.338010118198,1431.8534771613279,240.94667284812542,1592.9042315774489,3506.4563821520496,16489.959216069732,1725.9935271980248,1407.256509500206,257.69151966179686,1401.4884161423395,3279.1561703376815,16639.62812837344,1735.4423763469047,1404.254446101812,247.80353845553145
1464.0,3356.0,16408.0,1731.0,1372.0,261.0,1522.5850720517642,3297.7839579580086,16485.41872934988,1753.4436449483994,1375.0264964861833,261.63996119324247,1492.1292453435276,3279.4237654998487,16470.246310929673,1741.414438707975,1371.5265189898107,267.4187730625414,1613.6857252359475,3219.008688853196,16329.415700270114,1741.8934326562417,1367.4187021724372,256.1019427729285,1429.7957666428981,3246.3136663835016,16407.9295627309,1734.242864459595,1381.822528973518,269.10944642123707,1510.396125526836,3261.5721109851556,16466.697577681804,1730.1745300145553,1367.329106811814,244.0507129966244,1483.7986536412996,3509.875940912413,16347.13406044301,1738.3040733176642,1386.125418967706,275.25530882704584,1542.3572203195802,3374.0428431877735,16309.409102961894,1718.7907482094286,1368.6994356288835,266.93641253077436,1381.223329724725,3320.599143385883,16486.204987551544,1739.0467254345635,1376.506107630049,236.71737134865478,1404.2413278246302,3366.010299195265,16475.290412972154,1717.59877052064,1367.6209459765964,246.66825636215145,1297.8609680595887,3341.7917557443266,16482.794657224305,1735.1471974473782,1366.432331965291,260.56386252915735,1347.384045512379,3300.870687699615,16297.053149720798,1725.79951717401,1370.8991539740914,264.9318897590899
1492.0,3340.0,16440.0,1776.0,1384.0,298.0,1613.4452749263396,3485.2353740246945,16459.5684736259,1783.684992772847,1373.6290967493173,294.2672308863393,1553.0274985508283,3441.5679928326363,16422.50144281992,1766.5396391397815,1387.1952674385618,301.0895878306028,1402.7821903473211,3425.2345574826645,16556.925523142498,1793.5906164400403,1363.5005229815242,287.61340117246834,1542.2464599789744,3348.6284094331418,16457.247411025965,1761.7254913908414,1395.9594509321355,294.67201980523026,1721.7297387498322,3332.3276473575424,16319.46353897283,1774.8458704083137,1357.5127024870799,298.0451449444271,1411.2646533136947,3334.8291465702423,16401.96523194541,1791.1354142908751,1382.3200379502268,318.1030274940697,1620.4742238615977,3513.788101207359,16444.996858615552,1771.7444170996469,1376.3163993763792,293.0074391385378,1283.811047891164,3229.765136923572,16461.580006234406,1783.5727157463846,1377.7819423023393,293.93528385691917,1449.7429091594195,3443.6209015709605,16457.977862037125,1783.8667605097214,1379.9535374847044,291.8327653086048,1462.0146816829479,3264.2423756022763,16402.148993511575,1794.9176654956123,1406.544905267728,299.0780510095205,1261.768292402881,3122.9659657395514,16336.592610237562,1796.2804484420676,1394.5687853570305,288.02505719012845
1492.0,3376.0,16380.0,1731.0,1377.0,270.0,1478.9394432432355,3498.244959485517,16358.96419182531,1738.5355473539869,1387.2205739768428,268.1033667027745,1336.6595581034674,3502.5842073063986,16293.592635354351,1739.0220886234238,1390.372477457516,272.9951846558793,1400.5684055433574,3305.032837215429,16280.674697716982,1732.76088908049,1365.970248479279,264.09784932033216,1562.1707232493807,3370.175635174492,16414.097049748216,1730.9930631584816,1378.4879925625544,274.95968281757916,1569.58802783533,3445.9063638151206,16371.76731725893,1719.6702707300312,1395.4693088824993,269.69768484386805,1724.0472140463955,3377.9130149823163,16322.44239862534,1740.9298388339485,1384.1341391850121,286.7821872121948,1523.616315982358,3440.550496712549,16406.510613112627,1737.7323272353744,1379.4976108291316,269.9143600576451,1536.6426113091436,3518.8009712068256,16469.225581210558,1741.9258834543614,1379.295333596814,255.67188130156572,1651.732213286697,3545.836066860497,16213.278814626254,1733.5635650185952,1375.0646564321223,285.18221474785946,1249.1939146114455,3547.052025393804,16410.650235723064,1716.1271329349927,1398.1201339810348,254.73923034312324,1332.339518834365,3642.9624446928074,16421.7868807351,1715.6794955533153,1379.0544847547649,277.1039977414457
1460.0,3320.0,16488.0,1774.0,1348.0,297.0,1464.35392210461,3385.3970914896768,16532.370601717463,1779.057098826506,1349.4439543194762,301.9073100909957,1541.9657238597774,3422.6015135211906,16522.14373087347,1785.6755827570216,1348.3059639657274,291.1877381681002,1435.358559631993,3304.0411740423874,16600.81684219277,1754.9379540608286,1346.3532335058128,292.2548589920647,1365.8932448415176,3364.2742882557955,16423.795973310178,1772.2546878214346,1350.8446176628984,309.37630330813977,1509.3484261588085,3280.0913760065782,16325.694627100474,1777.363324429684,1338.7967337463078,302.1858687880767,1336.9344447369365,3349.6789550651965,16425.456251012074,1771.1476597015594,1357.1570973346704,300.9049366398264,1552.2573252294314,3338.3196531049134,16608.378941540894,1781.47156528654,1351.2742906872638,297.1448233801801,1451.7258753285857,3330.759391544589,16487.96503911675,1761.5711820776016,1350.2824282411796,300.8469146431107,1497.3831426884258,3303.7128374130834,16402.7585418015,1761.4779510217593,1350.0450053043992,293.09964564650465,1492.7848115638385,3156.810864281611,16396.816845037494,1769.8072581595247,1330.8391014978004,298.96249554980324,1354.4387978058924,3141.0131282605153,16604.863484211997,1771.5234043867572,1355.838332537695,284.2373014800658
1484.0,3404.0,16560.0,1740.0,1335.0,242.0,1648.173336330354,3449.45611589833,16642.792232680025,1749.893043348616,1343.6436767017487,249.53756117870157,1535.3018572419974,3394.1954786889187,16469.221997252687,1739.1823505768102,1330.940715442913,234.03222642683056,1526.7845530926556,3519.5997180429845,16435.69747501636,1745.1496132053896,1340.539802755059,253.21029619233647,1356.0171898039728,3473.6632233566093,16419.10151192818,1732.2492200207546,1336.9666759167278,242.74339520744297,1508.956228309778,3600.314283722102,16545.565777696098,1757.231605524294,1335.483669326728,253.12372079082925,1576.9207488387508,3291.5632406705054,16411.682344604258,1724.5825716918841,1321.5116955424505,246.02585546467085,1521.7345368979554,3354.8165913405187,16723.344229799102,1732.977039215248,1345.7381571150186,241.51756695763353,1555.2550321351825,3282.3434169581005,16607.66694821584,1741.7879282802623,1348.9431808015622,254.149855629508,1434.2588367934934,3401.1925013412488,16516.670863528383,1742.6053428628243,1326.2417140655411,253.6026978590645,1491.1486926525047,3387.8519530736,16553.22163514158,1745.0283877079323,1324.233683107846,242.24029043129661,1552.415234691937,3463.761965544283,16572.05599981611,1723.5684833532305,1321.078080060535,255.28464193519264
1460.0,3368.0,16368.0,1672.0,1325.0,280.0,1530.2169758508237,3385.6151848693416,16284.381951137217,1686.8834522641293,1322.195864061549,258.9501149072204,1502.6188975269686,3500.6440385054475,16350.035203644373,1665.0313207933752,1329.5247872777245,271.3883153300665,1279.96107289753,3222.5059999611576,16472.829252059688,1685.614605223619,1312.1088433995496,273.5238659899981,1457.802759742337,3424.8420319145744,16311.025508620602,1685.2800800799673,1327.145910307143,265.0136142375072,1379.3731237447155,3218.8391962963206,16307.042328040701,1668.7794618964315,1315.6327951165863,285.65744477781635,1402.0156436715417,3302.1892840163637,16607.56598575167,1658.8364107196785,1316.4096624900035,293.3008288668966,1548.912416464057,3119.470188893953,16522.9538396907,1655.4707799731002,1339.694302174011,274.8272631199921,1302.9562969171025,3454.785686390024,16529.106366306398,1676.815928078209,1324.9717710149262,281.7704511324096,1508.2969576679411,3361.4615612863763,16301.638296261364,1665.4335698513582,1317.6636479653248,298.39176762804067,1497.7995357644784,3177.3285149270464,16459.85704126012,1672.7224457105394,1345.1918095863552,287.6024099474984,1435.3104633490634,3402.1131756493473,16428.990789482756,1659.5324713075718,1326.6735371317598,285.16254628186266
1660.0,2848.0,16580.0,1658.0,1380.0,207.0,1682.8198594312241,2812.5078645492863,16450.795978418406,1652.7306837499032,1397.7241323975252,215.40216511808126,1724.16027682301,2983.9538486015463,16663.990091663858,1657.0294211942528,1373.0343876951067,206.97431633321253,1683.9532843820657,2855.392647836303,16553.00248813717,1674.6619314229984,1378.643149786763,215.60165778364754,1568.7977142394104,3009.4756204912564,16706.328073033546,1668.127649425538,1374.5870644634854,196.04371650178467,1795.892339274652,2830.9079162221483,16580.095154831295,1652.749998493043,1376.086290943019,208.6351198836044,1801.9243114638302,2725.2566973500793,16668.499254994204,1661.0702586118252,1395.8227473271054,224.20160239842932,1710.9475728031846,2866.7285319540397,16489.717112213755,1672.0546456767338,1377.2227722224493,214.84009987612208,1727.1495859037007,2896.4576317226647,16388.45045389728,1667.7581165510471,1379.7353415402977,190.709545754731,1726.7011521764496,2822.606380558867,16702.357380458438,1655.903376088961,1382.8812367752696,215.00329462050655,1619.3444719249699,2947.947485506544,16673.04631168593,1665.2850884322186,1390.300828299996,198.31456824208382,1767.4657320984143,2862.2611831554364,16406.169476003986,1644.9951016497157,1378.1324750074825,195.64410776812826
1524.0,3488.0,16376.0,1711.0,1389.0,272.0,1482.2660394256957,3383.0225053231293,16228.0997563606,1722.9070328149364,1398.091867382191,256.31683975680215,1525.6524627864994,3565.7536712051233,16339.814791680745,1700.1768465380785,1382.1226414545115,278.45086722139456,1634.727377838205,3540.761887526071,16397.033040418322,1697.6183370148058,1392.8451469822826,276.6094766126054,1691.9336187906692,3263.021614408296,16369.993930080358,1709.469299386118,1396.6647448017702,265.1215919505151,1524.0437434119085,3434.847931833703,16292.880941296635,1700.1833450874358,1382.8920890555273,274.5607448932673,1399.7677413590616,3472.010044991634,16552.42075146116,1703.313916156712,1399.7554167187598,295.2230937206835,1476.7668923635854,3412.0779401346294,16305.889790285726,1705.832090482722,1404.1580905848843,264.83949978377115,1375.447668353787,3342.8158235613355,16424.15808443623,1718.388647699398,1394.8309604023216,277.47875322256783,1429.4050732960036,3622.102430966093,16473.114178851498,1724.8716797885495,1377.077338592395,268.28371177517266,1552.4822624567335,3379.9287107474865,16370.352013185497,1714.3135462991424,1394.0059174355729,295.00646841515334,1535.6659581853667,3499.084252300618,16367.209795472396,1703.8105803276326,1402.063073552839,297.5745189758604
1496.0,3364.0,16220.0,1941.0,1451.0,313.0,1331.6253870648497,3408.5722358145126,16178.686872634045,1930.4920295640768,1464.8748100850603,294.2534120149916,1656.5856899758048,3544.6702626006727,16097.097875487507,1922.5986452506318,1451.6356882803543,328.0723822514177,1604.736875349018,3346.4725593856083,16057.46819533943,1924.4030104659842,1468.265649074555,303.38855439703605,1413.0336847472254,3374.9819723012747,16238.025557353596,1931.2501112123598,1442.6568025435033,288.13980955369374,1563.9162493807269,3398.0470407943926,16281.676358921355,1936.497921797453,1452.8365142850544,324.6079911024746,1407.927349817462,3422.3906882820497,16164.12921480109,1939.0155143435393,1428.1887344135837,310.6406514842895,1626.9273133794338,3309.868244721965,16202.145510514392,1941.0635206328902,1461.0323204228146,312.9963003836392,1529.0601878402763,3516.6036640591797,16082.795684079832,1923.3596359288908,1456.0390603640155,312.9235468831836,1608.672334747453,3355.982404642911,16443.005685306613,1954.5951567956497,1432.6638494913755,311.9767272227042,1396.9293946375308,3349.186533607953,16147.6345367069,1933.8058940884289,1452.64870605458,313.9627249597019,1561.7784850848084,3265.8918127263996,16160.849830404257,1957.3925899947042,1459.2676338580332,310.860693765693
1396.0,3332.0,16528.0,1741.0,1353.0,277.0,1420.3153135273392,3544.6166131759833,16286.838945710508,1749.919478184976,1344.9447204231078,274.8804497101921,1424.8033221458752,3342.1552439654797,16375.078895283328,1755.317714768994,1356.4901815600738,282.60747276856773,1169.0680917587629,3276.014108558341,16698.50904116978,1752.2586785738172,1368.9206130898112,286.22231953739237,1316.5576686666543,3179.37792713617,16525.442113701964,1757.3337116833247,1356.2072625493472,280.01791154759866,1284.0622728075289,3425.599915770392,16628.26369084721,1746.1155251955167,1362.1061392222643,271.17670739849956,1376.7812430050426,3383.264393075,16456.563962298955,1718.9156025072596,1344.4162984756806,292.38893099909575,1496.0792525441689,3240.2452741225948,16451.98104862134,1741.865971904347,1338.1485222759218,270.6436127315566,1561.7995208488865,3474.7832868461264,16545.86514082214,1728.0982622973636,1342.202850488437,280.3241586894591,1384.6233826193404,3448.0506495307486,16347.588908513213,1730.9257674331516,1347.6993026499408,272.39636586393374,1548.7572144148057,3257.709789814821,16651.333117739014,1737.0064196827796,1359.4746545643147,280.779803037781,1399.6495947736926,3066.056666794346,16281.693265797965,1749.4679799968967,1357.1730832802507,262.68519403790503
1500.0,3328.0,16552.0,1792.0,1408.0,299.0,1438.2768096874138,3340.91754999961,16758.33312813717,1789.2527780184703,1405.2648409091958,303.2561719292542,1478.1677747269969,3303.1516111945157,16637.112569715453,1794.6162460843584,1398.4689562633082,296.60972694478426,1525.494207823276,3269.4744606335157,16577.13588732045,1774.8800102285604,1402.5869254919483,301.8263856621288,1407.395203830503,3382.6163509526623,16509.835096396484,1804.832727547072,1425.7615035424567,294.745229388348,1483.451694710251,3226.5125738657175,16269.122940990947,1789.1114078615637,1415.0511208798039,314.6976961682086,1494.9465267093512,3251.944169609678,16505.789618038336,1790.1882816181394,1421.5452402568676,295.0823249123948,1342.0773991116955,3366.2474436705284,16797.73830636304,1799.2427317444099,1426.380442150568,295.6198403632077,1482.9192616031821,3251.905356389693,16509.435204087134,1793.5251961233025,1398.0644393857442,314.6170490603249,1556.691514103063,3343.6896816737153,16469.200028817293,1780.7904922898747,1409.6508472529317,303.0110988014022,1514.758969965111,3357.877127057478,16481.456669701172,1782.9585608318748,1419.4856036859017,297.83523364781405,1418.416660211708,3274.360175848273,16676.743092344543,1780.0962928341132,1414.6788398578344,281.87763788846956
1496.0,3480.0,16456.0,1737.0,1361.0,286.0,1430.792955124562,3335.9875328491607,16566.719120427177,1729.6368443049143,1351.7801396377372,293.75624680699843,1523.4468402616596,3433.579169372045,16480.41677055706,1752.719071212727,1363.9997099096936,300.90423138268085,1511.443306624324,3400.36359919391,16374.356283276216,1733.585879621465,1361.013717493317,283.85476002422814,1502.3739782828195,3514.3561566347053,16557.050162811647,1735.8000169905167,1359.8846501645205,285.48055356927404,1607.6930669746598,3399.8231182700983,16573.72743094562,1729.252098284563,1364.1809515062598,282.9103339480012,1348.5533925153109,3479.8780015933385,16536.463491539118,1727.567139317045,1360.0821279793806,266.61729312471084,1428.8456231409973,3688.401475505243,16461.155884703832,1724.6998493008293,1367.1146176597388,296.43865694099816,1595.9522238828017,3265.0042750017087,16392.421693311266,1749.1559013234319,1349.6803234328022,264.5730033189953,1498.1709944932998,3505.5417899742524,16459.068360834488,1744.3592468891793,1359.3021768843446,277.7983956792845,1531.041998304649,3389.8066291048326,16334.832401946001,1712.0818359563502,1337.5447606750809,278.088782710856,1439.4917912536382,3435.541389534546,16413.389995349713,1739.3654134186856,1358.9246744148077,296.2321718549541
1460.0,3384.0,16480.0,1764.0,1372.0,282.0,1599.4784943158916,3383.911327664964,16519.749895792706,1770.9644394430795,1388.909470226318,292.1168261868109,1395.204586498199,3607.9122309752024,16339.462588976261,1764.7818726050575,1360.361442610145,264.93903682609255,1412.0045539912883,3538.4941951018995,16462.39487402528,1758.2917713908196,1385.0256636058823,259.20689867596354,1382.4417488756326,3398.6377853147897,16373.550176930006,1761.3424555189686,1379.66849392884,291.339253048392,1444.8657062352077,3508.820876089087,16539.736784166806,1765.4927064282545,1372.3857820586593,281.99632013938185,1530.6687802247893,3352.216929844585,16513.41627679089,1773.4377232167237,1378.0993779462567,271.7335484198453,1388.453681483693,3409.0925878070734,16619.84921642908,1757.5660033386011,1379.5081439610656,280.89960994413053,1503.8872064493037,3560.7511192081665,16585.575669316095,1754.4468317137566,1355.049310538241,282.06899428114156,1438.8372197329822,3335.3367178708704,16561.408448786704,1781.343115282149,1377.4690755195736,291.8665180967419,1465.3029921801444,3521.4323395638157,16606.826303995316,1775.0489294372628,1382.3942865889078,267.55090446603,1360.3089452458328,3412.9285800674566,16426.895040186137,1764.6663429396333,1385.3215608955816,288.4556809457956
1508.0,3288.0,16456.0,1759.0,1372.0,286.0,1339.9028243866826,3357.793851554291,16480.53094318287,1772.784085553609,1365.3466457680254,287.5150346995167,1573.204172904718,3299.3267159467937,16337.026638275824,1774.204089679165,1367.585701309801,277.5152246431243,1638.9711474580388,3475.203098831549,16408.787906968057,1755.3793521821715,1371.7318931924822,290.80849871839854,1418.3365678713656,3327.377127659947,16484.634627130163,1753.9878292480628,1383.8150873395662,287.00660174787237,1506.306012986607,3092.960624663915,16280.372682603516,1746.7116426800287,1381.516288632007,286.32693669544534,1469.124302749017,3266.058760988076,16521.357731859316,1756.4943577299584,1384.7444415374637,289.32076442705744,1406.622006041908,3258.858248442791,16500.448962829276,1751.4998594675742,1375.8296968121865,286.59478531204815,1478.2198495545758,3208.0721916216457,16477.825899430532,1761.208685061699,1359.2837137421782,257.43134058435055,1750.0273529466037,3180.0521157887943,16560.640430763986,1747.7006838523366,1386.852014638839,268.28787804714926,1481.8214745739415,3258.1345748004073,16442.83391231467,1755.4428557494196,1373.3472038657103,296.2808245952,1409.955156560806,3322.697501887667,16454.725218725944,1772.7663948140305,1356.0209801757103,280.9338473300141
1544.0,3284.0,16488.0,1741.0,1340.0,277.0,1523.191072204317,3274.42516388435,16629.684893967806,1750.1559234456306,1335.054681558447,275.8622375707314,1446.1517315290519,3408.3090883370505,16404.348177506174,1735.5731771155226,1334.4985484415533,287.2549205171036,1520.3774080385174,3341.811467038479,16428.615734123898,1726.7887716653604,1353.4990822691932,272.5415980611567,1461.66084514967,3290.1542079582264,16398.72656703957,1729.7131249511135,1344.5678379276965,281.25495060921406,1401.1191827756772,3260.7775240056662,16463.743349318294,1754.427124905284,1342.3805462110654,260.8989233068615,1732.8027047064904,3279.211071483902,16398.94425795578,1749.873016164916,1326.175289876868,274.0739319683447,1417.2244795770375,3322.8526174410167,16509.453535997563,1745.7266226469858,1331.8954317785392,274.41560237845147,1462.2701121170912,3538.5009985861016,16506.524711694008,1743.3331821302047,1352.0556321016272,281.896773123468,1684.369812733369,3370.1304505695284,16461.81177918176,1727.4440453021398,1341.7059431393404,282.51680304670316,1457.263174325988,3314.3395350003602,16562.11498084464,1740.0406946092523,1346.635656212733,289.09219822995135,1489.325102030073,3343.2098333749123,16552.879347589344,1721.1107002347235,1333.0457527291896,268.2619758180992
1552.0,3312.0,16548.0,1768.0,1369.0,299.0,1397.0975699065232,3414.0967126821874,16762.292159874112,1769.1192771292435,1356.6106808422646,310.11747510142817,1544.3253815935918,3300.4325614740087,16505.837835579878,1774.5873564294488,1371.303657803086,287.213062370712,1403.3807264356694,3329.3463703548227,16556.110432913032,1766.8104743484312,1376.8167854157405,311.0706704335886,1429.557782639909,3369.7607277006405,16616.35134661744,1759.9150424208995,1362.9623573075892,304.7612908092038,1453.3567438145622,3435.8102595026135,16700.7243431495,1771.2857647901708,1363.5296935657311,288.83028370783404,1674.474768791118,3181.7815352259345,16559.82929430502,1774.3489046667185,1373.9424389477633,293.1049554430226,1561.2251136721911,3206.1836449277243,16726.22953990534,1763.4302447681252,1388.6671209515848,275.9022334727265,1388.0046503102994,3281.599535334413,16425.63419472091,1758.1220803902456,1357.5362770019015,304.67904357569637,1537.8962228377918,3263.70371719788,16604.9028600579,1776.4234816669257,1379.020423803043,303.6594665510008,1608.7393383252952,3384.153646881277,16563.251437755134,1742.8501348257885,1364.7656844703697,311.7780995420817,1715.528868284359,3337.1657949168357,16550.96973971031,1770.8836598454436,1367.792391145583,283.80347081080276
1508.0,3292.0,16548.0,1830.0,1487.0,255.0,1540.8761166777092,3302.1069033933877,16574.485860815057,1816.9596650021663,1494.371948987484,245.06159560401355,1631.9053953376254,3247.949196497642,16556.848200454388,1820.9900477989675,1502.509085126552,251.54368943501655,1506.3311980607393,3326.451601260272,16462.563632186197,1821.3960896251347,1487.6461961818866,243.75321446267495,1555.1962204218703,3332.871469699198,16615.548932757418,1838.5015153038855,1493.2391108598333,233.5968535092253,1359.4064861487177,3548.6686926615866,16446.71591382358,1839.744335364895,1483.8106828792713,258.69981962100763,1418.2419206765817,3305.1022884943573,16474.121251133205,1821.5611372067538,1506.9328977809482,265.22407120482103,1409.2269170612437,3273.2929215035415,16694.185480703294,1840.1650620034936,1491.2208415597815,254.09399418960638,1580.9357760752862,3256.5166276648656,16425.232975777773,1814.242374807966,1481.9709618820234,269.6628759187702,1540.917158376769,3380.4037268408897,16612.32214918331,1827.7071645940314,1500.457566020944,258.54070789631993,1564.3135625428058,3375.920889466149,16320.529592090703,1840.398071116355,1486.9823488313507,249.60361885976926,1326.4498642141214,3203.90092649265,16535.555521329487,1839.9782477536473,1476.7322185942694,256.5577665159978
1524.0,3360.0,16392.0,1780.0,1425.0,261.0,1609.605421441584,3475.5113826087045,16220.26290513436,1768.1840773808535,1418.5140824129999,269.1610138221912,1450.9181387449962,3304.8186878444767,16363.1857313749,1786.361978462777,1433.3608693747196,252.80135445422152,1624.6033981284136,3409.9074506786133,16221.897078436787,1786.7091783631001,1426.3407609556762,268.6519113290249,1535.668340912125,3228.5546267223076,16468.472889099576,1780.8412155735732,1433.7910798676246,276.9416385486685,1688.6405293882822,3443.8093396699073,16278.921173486859,1775.262250376535,1440.363116637989,260.6307684088796,1464.2937835701466,3343.2686908385695,16498.174846350383,1778.9996896350756,1431.3216941353483,260.3571248298048,1641.9564641432266,3525.9831287806664,16489.148058682953,1783.8724930676594,1430.6911103106586,264.259733068968,1535.9719214318234,3320.199481409743,16612.138646128577,1769.833761795309,1421.2511518154608,271.17453831051023,1390.9111772666283,3543.3826303503647,16439.77679225051,1771.7968284771011,1418.7184572447848,267.9895644705972,1306.4022476598054,3299.7396985118257,16328.619385183185,1780.9901145026283,1427.1640401536088,245.40160731301748,1428.981173770149,3468.000144340455,16401.674371883117,1791.644379695844,1430.8772807208738,272.527084271622
1488.0,3316.0,16456.0,1714.0,1327.0,287.0,1284.073337521714,3243.7560780115477,16403.82625907307,1718.8746704231305,1324.3660567949964,294.97641222397084,1488.1872599507244,3441.0154396761936,16456.931361065414,1715.2290800588457,1319.0251354457525,278.34977585212266,1641.8217620041178,3206.9736972357896,16501.282436889815,1723.9939529402627,1337.2377049200174,288.39861387399566,1577.8480508239136,3322.1215084444616,16580.413829471087,1714.5962896789576,1334.2016304059061,294.3969654499088,1594.0160422934011,3406.855744052736,16455.789575733983,1696.2540373550753,1326.423733836292,296.0107374839881,1665.6321121661044,3266.5717000611185,16466.153823626002,1706.5248185668218,1315.8630523007544,288.5498121766178,1574.2681559745547,3278.982710025308,16461.268891472537,1725.3793933888414,1326.5957676015375,295.6764697332038,1527.5304868352466,3374.36332248969,16156.950916259215,1708.3242063318776,1340.3699882386154,286.7516673429364,1597.2589522552776,3264.638266464703,16525.580106778387,1718.678018790031,1342.7873193767693,293.1474659958336,1614.9048170987226,3440.414144187212,16479.36669378787,1700.6889803605798,1346.5498589251017,306.36220358980825,1396.7632832930776,3233.4094661465915,16464.661998609805,1726.005222888852,1323.6370924930593,289.3750996550534
1528.0,3308.0,16464.0,1743.0,1374.0,274.0,1441.1153824657254,3269.650948711136,16395.88294641181,1740.4841197583667,1391.0283696579652,291.0079397216924,1606.3536280219923,3374.0744852685275,16527.44653450339,1745.0671720115054,1366.757663528494,260.5405437762379,1481.6372693418787,3475.938982740382,16420.76617910271,1756.9927875080255,1372.7364932135008,276.89725657919826,1349.802168972193,3497.0775874630313,16484.53552381616,1749.5723534061322,1380.469964446881,259.1842376934069,1609.1193859314928,3308.387580254578,16606.311797368668,1733.9256844453084,1380.6297756727868,273.46342814665826,1580.9074586119632,3151.9205460555404,16364.02826922238,1745.5099064927092,1352.8530268463498,266.64495578216304,1591.5157252803867,3419.4912269519973,16740.30784676732,1743.4703789190164,1374.7681731104424,263.938139478309,1480.6769585485883,3412.0521270412687,16348.551522064552,1723.4994179796863,1376.8799658507498,285.5870247284774,1533.206200620842,3361.5646008329295,16405.88619027811,1728.2731492707094,1365.6839562102437,273.6163157085643,1518.5451750834443,3281.0787337236948,16637.50750138627,1740.3638387781546,1366.3353902197146,294.4189499780761,1490.158015972961,3339.6478032268265,16548.425709470965,1764.9484315666396,1366.7175092534449,285.3064231122069
1440.0,3336.0,16476.0,1704.0,1363.0,276.0,1502.9913766640002,3303.2444696521407,16653.326050941734,1709.2170315433707,1369.5457699321648,293.0824347197504,1623.9317107425022,3234.1329424946784,16264.553144231033,1701.0930572220657,1364.818312340032,270.9084088792198,1567.8140095368626,3274.4447565961837,16502.70622467212,1715.3307868046952,1363.8002164316497,277.8797053351744,1451.3725932685998,3430.0342748210946,16603.765626276272,1688.6343190461594,1363.6675127185117,276.5152045706103,1530.8706555402214,3203.608724021917,16450.96426725964,1693.9072261220495,1356.9923530425438,278.6303849398846,1523.3742170608116,3520.2816336305223,16569.039030582044,1704.4348128808977,1376.9263279095285,273.8211985194593,1471.2679834901528,3371.252229526901,16396.698455698093,1692.142963081687,1350.5365561714068,279.82229881269535,1303.6083452697142,3354.845790575232,16604.08770669875,1693.196623683646,1362.645355911132,287.4535856737148,1492.5763139452158,3255.9272302040704,16378.773742266085,1720.9071127694256,1369.6649994432837,266.1883174049551,1512.5834986395375,3425.392880659326,16413.632070136107,1708.490008382259,1351.9178954290094,269.0415345713074,1488.9442104752336,3142.07760537649,16481.818579855302,1706.577515081211,1374.3037019017222,280.43813859232785
1524.0,3340.0,16488.0,1726.0,1316.0,277.0,1500.0235667458066,3385.6991538413076,16551.05379754565,1743.1241199039794,1309.4990942035672,257.6136789180558,1612.373693140873,3283.768476784112,16465.79797238672,1711.5143516092471,1313.4453468934762,285.13304398217593,1442.4068749064675,3414.3006326031464,16361.343436383537,1743.2297637237448,1316.5654782184465,282.2761849739211,1802.235479169716,3163.5958515935436,16541.451336953745,1736.1675821054027,1321.1547189791756,277.9390065226708,1565.7426555598572,3388.4224596198715,16530.40521835969,1729.6200697093682,1300.6106181571677,268.7571275518228,1712.3790078245556,3256.1917757359447,16532.03347776474,1713.5645750639637,1337.8824457123808,286.73846086804144,1545.7262578397037,3387.800781296095,16471.46905659218,1717.6757537475958,1317.485354753884,267.88717423873584,1552.8762242732735,3469.7338168420106,16635.46609582507,1743.887308459291,1314.5067562254283,268.95047274919455,1482.521142326819,3426.2403517072567,16481.18660121521,1723.30997805056,1325.8137956343824,263.7136290067521,1584.3648199745762,3470.8984906390833,16627.319370674577,1736.1135322750222,1309.1297025042668,283.1143963555686,1635.5588062167838,3429.34605189271,16480.201476799422,1734.5093902648714,1336.4705523264201,279.6544654560683
1456.0,3312.0,16648.0,1720.0,1370.0,275.0,1521.3598752621913,3371.583721773515,16839.17170873368,1725.2094955156206,1370.5826902312906,269.3496327783412,1527.4802539818409,3266.3801496048163,16553.52610315349,1723.203558290553,1379.066751912438,265.5705479207789,1393.9106716661631,3421.193279166477,16734.231979722223,1711.4130191777238,1359.9783850913702,281.584394988455,1531.2077501495357,3429.718155845471,16708.304193183063,1711.607827099336,1358.9332517844728,256.8312922311537,1647.5341762933533,3363.450464307036,16823.300377591127,1732.7668731900972,1367.5767241918943,279.7591176086562,1572.7555758651274,3217.1954297986,16623.983528548713,1724.996167627942,1364.1211443603393,281.5567174058665,1409.5876682836076,3329.8032290842143,16701.70269551979,1718.5625982473412,1364.1545908038029,270.7135084101197,1391.1312833027887,3357.472235671477,16632.047535073994,1723.8554055043953,1366.0498831740356,275.45079737351864,1489.1894434318622,3331.9877647849426,16633.323761220745,1727.5444652770261,1368.7526079001918,269.34716089782137,1450.7772493143357,3267.3184009457214,16837.691459956033,1731.0871687040799,1342.2336710080183,269.87603064930653,1431.2203828247377,3363.8655457009504,16632.564282118503,1719.7479709414233,1370.6635847017515,281.54754947878905
1552.0,3372.0,16616.0,1759.0,1370.0,297.0,1495.5544394011638,3448.162365752518,16616.758525114423,1756.1879343061205,1383.0703309627074,321.2025966476713,1747.3218253216783,3376.5446558666076,16566.7723020302,1744.4306226620565,1373.7101639974007,294.14679001179826,1579.4263999779264,3370.6801970832994,16567.420756132924,1758.501420937291,1383.2144246416503,297.2079347625821,1516.7472277052564,2965.5897580186074,16699.414712329904,1760.5439777609874,1366.7470702547814,296.9948747870126,1551.447430645412,3180.1589383357505,16652.187390979707,1733.5696951647167,1378.8415807351096,299.29746630751157,1478.5019201283073,3334.1912682573807,16600.807342754957,1769.2188079556406,1376.998396473216,298.1283426062474,1385.1127286305439,3385.2574261075893,16557.21392442436,1767.483336843003,1376.9074257754496,284.71489665051325,1563.9488267048648,3285.986562888067,16447.119919492725,1762.8003613874823,1380.7317123004432,304.2935054141919,1443.4098004925772,3435.607922240113,16573.133308498203,1753.882626728134,1366.653261647578,313.1799706650934,1556.006621419823,3357.998770264438,16742.813880339585,1761.7335600765095,1363.453107751415,304.22568281605555,1636.6928603713518,3290.183204571432,16571.606312512653,1757.0814614827618,1364.23491254506,292.6224359531193
1496.0,3348.0,16460.0,1760.0,1355.0,290.0,1272.1792905486031,3280.4767805447627,16384.156716356643,1747.3610312791711,1340.576957736489,299.18601590105465,1619.9793018263285,3368.2800271813867,16561.137327623786,1761.4039909306357,1357.2723459793742,266.667989563051,1418.7341520908324,3338.7123834165664,16430.27239345276,1776.5559830805537,1347.5848278969295,302.7762874413052,1431.8372755358691,3406.6886164934544,16438.090517535937,1772.7937758920598,1344.2944629653541,284.8512741248201,1535.2556974783556,3421.8206769508265,16433.4578116043,1781.7571728745668,1360.8831766742976,301.0410726483867,1289.9540555493015,3381.6928290901456,16400.029197329346,1748.3964733919383,1351.476049027927,279.87444518572227,1485.8145705613,3295.844853934386,16462.269319933344,1772.2302014138202,1355.4880209204525,295.8475811057461,1578.9504907202802,3432.025771136219,16300.333543743514,1762.4213547369425,1337.8895615243273,291.8826242223544,1692.9535929767287,3220.1232617447513,16476.347913776568,1782.3041473705841,1354.7574934760778,301.81145875357106,1490.6553045061924,3401.4340387288757,16591.348210025168,1758.0359441989644,1355.0066974512406,290.9360694421839,1444.0017750701554,3445.239659015044,16395.423765039715,1765.4722436122468,1359.285510203954,296.2157807283528
1564.0,3364.0,16492.0,1790.0,1357.0,284.0,1677.914130526097,3380.808700463118,16474.1561497542,1798.4120103107,1358.2195133614302,264.53502265167856,1472.7349999996231,3220.263734655032,16523.65895169521,1783.490485836262,1364.6982096700233,270.6631764941166,1366.7424535244834,3442.4376100857244,16651.464751322237,1794.0124297913542,1361.0678857752412,277.8478260782478,1530.8649065722843,3464.255200936738,16511.57567075996,1776.918478637341,1345.8885544270915,286.93148832739394,1623.8021092439994,3273.857275397832,16603.208885058742,1793.0384065833098,1364.7932266152088,284.35021374097136,1547.1350045249424,3117.5571082200386,16595.25362201933,1785.2283168783536,1355.8148728935835,295.1268653237697,1490.3025679441678,3384.5059080557426,16630.71241096576,1772.757845743899,1360.5653378430964,290.10784686530855,1563.9723559405948,3240.8728888490577,16726.863208374696,1789.5003356438133,1356.3348198667659,279.25652161536334,1686.1407503620999,3337.30153447073,16526.89051938372,1786.3670655912158,1349.075276510607,283.63898184879884,1723.2252014144003,3521.049190766059,16583.895108071913,1789.668839787751,1338.3552635947117,284.1025843878084,1490.5407038656545,3197.706516064194,16299.532845203803,1790.5811315849244,1349.763060873878,286.85255308760156
1472.0,3360.0,16408.0,1745.0,1347.0,312.0,1632.748606116572,3226.741450566603,16385.4403238171,1737.5371668569417,1369.0878663531498,319.1012878451211,1343.7627553813302,3311.4585855686187,16346.822722296694,1753.7970100676732,1341.1354794356184,307.45862777899305,1380.0290307867706,3379.5101349655333,16311.569547565543,1745.0746788503734,1355.4224531426712,301.25397304877765,1475.2621010637424,3309.914283207907,16445.4948503683,1731.8957002562381,1335.0361972465528,320.36166147604604,1378.0722185651819,3469.731518079044,16464.171655693674,1767.7444826682802,1338.967207743654,313.2667245908307,1364.9509653886075,3588.8410857294666,16539.036630310984,1752.538718542898,1364.4511342798387,322.123603378299,1430.6338641115506,3387.5025778330073,16456.20012701953,1753.054151680783,1343.3002124189502,316.0016311051645,1528.8402651425527,3459.219586132438,16487.84939181469,1750.8450435501281,1329.8835692133378,323.5810196654459,1513.71232542141,3427.889328221666,16574.0975053745,1740.9549115160096,1353.3980322757752,302.7180982010257,1497.0185985958938,3541.012520782745,16417.92407637993,1733.3173914052713,1345.84704386526,311.0009366282824,1545.09238476698,3528.2112011865393,16513.243543984427,1739.6934589374587,1350.0430063630963,308.65851540212526
1540.0,3240.0,16500.0,1776.0,1385.0,309.0,1638.2978676774756,3367.355591359813,16390.693379155375,1765.9932073197656,1392.107038244917,316.1984600347395,1596.6695227977555,3376.72688492989,16448.291008471722,1766.9564116153163,1387.9107796666085,310.14982114435077,1662.177244854906,3278.155420052482,16558.78133691031,1780.6368224557855,1392.7100659620166,317.1452391704322,1565.5710068801134,3041.715758240376,16430.978481309863,1753.9728082649858,1384.6480566133746,306.0796516782633,1538.1258529068045,3134.873693756708,16386.932917558566,1776.3025311124277,1383.4153614353913,318.73343958726895,1447.9202800453309,3293.0410733920185,16514.732741385174,1786.6631497414048,1394.750918289087,303.2792935075604,1561.197796491613,2991.687137155186,16522.211498363173,1779.4067831577672,1377.270951875959,308.38832096589607,1655.7797082492996,3288.7133505815136,16566.62397388558,1765.580959253761,1399.2058701453677,313.1604052132038,1512.5977948726295,3153.9932050320513,16592.83660691425,1766.0681478785386,1374.1439398394123,296.38123889744213,1437.0206716207883,3290.4621947787114,16592.302267508403,1763.422170076471,1385.9595222735952,315.7212498552926,1613.7479665688008,3142.538078277102,16495.776083100875,1775.6315257587726,1386.0042125146558,308.3219828491738
1556.0,3300.0,16444.0,1750.0,1366.0,264.0,1599.6863735064912,3262.0848442456468,16379.218602078116,1740.0732768949304,1362.755807326755,246.450411949401,1493.162112659868,3298.984985723254,16285.268004257076,1747.554265787911,1375.932348244035,262.33825703136023,1628.7499423927948,3294.984551338499,16583.486321501645,1731.9225669932841,1366.8649866011729,262.567064344679,1433.3541198750318,3136.985365368921,16323.09531826712,1752.4781508730675,1365.7126881516763,283.38728399977515,1581.0518990779385,3352.0706924320107,16532.0386119292,1750.0750700663868,1370.0833093662698,261.2139512277583,1510.3808281643876,3339.941846167898,16321.537297611601,1773.8310246078613,1374.5220885522524,255.25638959797956,1579.3408182489,3273.043992666875,16372.001953172528,1755.9342157783499,1358.2348629354578,271.0994027166608,1590.3247888151182,3223.95380977453,16351.861218757458,1740.2889761537622,1370.8286207058768,266.549002296548,1538.4318396696701,3439.687859036292,16534.892456239268,1749.0570358972407,1361.166711336249,264.2459276627939,1510.9691118373657,3453.8652687336607,16273.284556295463,1745.7252024682819,1354.393270291829,246.52261916499197,1451.4592673057964,3299.2653307852383,16278.784650033733,1741.8289989932043,1372.0708339608725,268.85753647659925
1516.0,3324.0,16416.0,1750.0,1330.0,284.0,1570.8621156901186,3294.538202356867,16173.135495576556,1752.9933670633873,1331.0052897168096,277.72957482272443,1535.6231974594245,3233.637230075242,16418.937716632736,1743.706035358286,1321.9859574833595,289.26763652934136,1504.081746405706,3397.896990375661,16304.5618989727,1744.1375817891296,1337.4421003136383,280.6519108895152,1686.1639030238543,3448.9505758701202,16521.687388280025,1767.1949474215764,1313.787758111711,267.0754002807952,1386.6692343142865,3459.3064952320196,16480.01622422231,1757.9613906586405,1334.8014253611632,293.9025345658599,1343.9965572122974,3150.1362510353315,16505.59824476368,1755.1925295490971,1325.7762746850344,290.16996073543027,1355.2201568691398,3252.471038793917,16471.881045133272,1756.2567326393619,1328.5457899765915,277.52568430896645,1533.2823748260334,3301.0417383507706,16203.831247828228,1754.360126593524,1309.3601886720119,275.44998853372437,1562.2433726237832,3469.413328098782,16330.464873620725,1754.4723540408693,1331.4579365488044,283.04184984975853,1535.0178139160828,3215.5634792238357,16481.855132358483,1753.0330387318595,1337.6576632393133,295.4888325939936,1519.8986178899265,3481.5902691210385,16444.84762779667,1755.185796411075,1326.7202772596133,278.05376908398813
1520.0,3280.0,16472.0,1742.0,1370.0,269.0,1394.9773872193964,3201.0011472199667,16609.284193979467,1744.0673146742586,1379.3983029063297,263.89531939124566,1688.503895605218,3385.4521362970618,16353.307228290003,1731.6933165832124,1361.1224837857212,256.97313930082606,1733.9163087080822,3096.4395577436017,16694.47614729297,1746.7990042403198,1379.25890684736,271.8631808023605,1554.4224116937053,3210.2429432519357,16554.97305551315,1750.9145684926236,1386.6324218807315,248.66435246454535,1564.3994844946433,3438.9405694664524,16551.398990334495,1738.5962408047376,1364.7293775866435,250.9031789198667,1583.2139920467798,3224.266196262497,16441.26385349855,1739.5938392583041,1367.5675594231932,262.6532703169975,1567.102305395298,3420.911952179677,16637.059943785596,1732.221194771625,1374.8716816057602,259.360797711059,1531.2615806086428,3447.6909759089363,16653.98001560609,1743.1927957235034,1362.6833745279584,265.71986748573,1281.2259115105633,3344.579930164649,16491.402587789828,1738.0458987652987,1369.7662778013894,268.095042009364,1535.3367584004727,3253.9261178922043,16478.307086731264,1750.21321852483,1389.8727326515311,244.6987078627773,1448.9144985963487,3500.920314846619,16554.7437220017,1757.0892720597797,1369.9781828222826,296.0789190574306
1464.0,3352.0,16484.0,1753.0,1370.0,252.0,1578.5384042369758,3349.3042377760917,16450.952486424103,1736.840029463851,1368.9366825540583,253.33309834221512,1428.763382844842,3339.0161378367175,16474.182105569507,1752.6608544017672,1372.1263486568691,243.55469808465767,1485.5709922490134,3527.551617195859,16403.328512829732,1751.270365867071,1368.0654981055472,250.84959355912994,1562.3525061433493,3336.88195744892,16375.763886922252,1755.3189837231039,1361.2294403617966,245.73910310327173,1433.0324586111017,3391.607556971442,16435.229600415016,1742.8792250546617,1352.5626163628642,262.15645387360075,1514.5856702909769,3303.964291540647,16653.006538520465,1763.3023575308598,1360.3316234536564,230.7171158621359,1554.0564430424788,3357.3554193494956,16479.501277785912,1754.1772923908482,1366.6930174135819,251.66055714960112,1482.8684409587431,3201.1539181443795,16575.93061660159,1757.7990851649652,1374.3451283825789,252.46724998077497,1581.4703592954145,3390.9389722708834,16530.439524189227,1737.0262669737454,1376.4525618648938,254.4665817508909,1499.4713738812106,3416.991063876475,16484.484769868413,1751.784685401969,1359.1395831463149,249.4955498797585,1495.5636493065974,3333.1889609311656,16448.761046489137,1773.0876517099016,1353.3989278523547,250.06914723379467
1428.0,3336.0,16432.0,1784.0,1376.0,283.0,1249.4040237990175,3371.199472883583,16609.019926640103,1795.016844244584,1384.2417066956982,287.8568292576706,1415.0128014148593,3158.6296830277415,16474.320876853144,1787.131086637184,1383.6684418926386,267.22453756011174,1519.0313589939765,3293.9721458846384,16369.965502062025,1781.1661296335408,1363.4369066140205,298.08725818125635,1486.6221302128033,3427.6656037169323,16471.14222876418,1773.000781678329,1384.3551248311653,273.37747242643223,1438.3926808464084,3410.748314994759,16425.167802639982,1782.4510959705476,1382.3028216311836,282.27434463894116,1554.4921195650982,3151.2909656507827,16342.250346291063,1788.0300880983957,1380.3102281046306,292.2808345795883,1446.4534525208196,3217.517471823875,16257.257617854944,1791.9022415609509,1359.0763921200464,272.0580284488531,1453.3160183514483,3248.4012976303543,16382.718991647745,1793.2528857048685,1385.6227206000312,273.26851716538977,1574.2413962559715,3259.5297042565726,16345.234440671093,1771.1860933236885,1358.5395154726432,288.75420670374643,1490.4063698036452,3444.5890706526898,16554.288039937,1788.6135538735186,1389.696162128355,277.39622656866266,1606.0196394292109,3322.7962075724554,16373.323596050854,1789.2476182340897,1360.51967979678,288.22066264221905
1492.0,3400.0,16460.0,1722.0,1359.0,268.0,1642.4513924490936,3364.2892102183964,16530.405756665492,1733.2002933443216,1348.9838224305583,259.6015902642667,1339.4113528902124,3430.5778512560155,16449.07173838862,1726.2851771642786,1349.7067275434306,275.62616897712326,1430.910688401143,3226.949954281793,16476.57252013255,1708.2026719174016,1368.0104320400512,276.0158240750074,1586.3081438464571,3504.038982183724,16257.337589567931,1707.0316894295893,1354.7422543191396,268.8825876722958,1380.7935636820002,3409.0273593560787,16524.559006737596,1725.4930635578216,1374.0240248879054,255.89218193478828,1410.5263262377466,3166.7087401249532,16365.135527503395,1715.075528499952,1346.0118411488554,286.94944808857736,1517.2458807505805,3399.12313424159,16247.879463654366,1720.2886186282014,1357.143157960133,274.44998080185707,1582.3208238513714,3082.970640393705,16565.369196864136,1737.6277013408956,1366.6506827132623,273.6788751010695,1595.6009184238253,3547.3580833616147,16530.50639090177,1712.182700497702,1391.0760664380186,252.54992391100836,1505.7399673560244,3429.823404835686,16610.1306389978,1715.344623918218,1356.645569389968,280.843339217724,1450.5776005364185,3567.6034594197977,16561.244914707728,1742.0625573520663,1353.491743768047,279.032580977115
1532.0,3432.0,16304.0,1815.0,1423.0,363.0,1585.86125077162,3349.917660688964,16288.872249482552,1843.9992654647133,1402.5584621461073,373.41977170623113,1561.1226707439735,3525.5167197885207,16405.469658928818,1817.5494345444856,1416.0582685259242,344.8941981528095,1469.110989808306,3595.18095076462,16242.309278644154,1825.712222455132,1426.315002809541,370.1545576991706,1651.0781837993252,3227.3489463959877,16317.73734867818,1814.1192005012053,1418.8610523867778,370.0381212443995,1550.125972507776,3524.5538495236183,16219.386372920499,1811.8577047598842,1410.82026971243,364.63410469824316,1349.4991229718328,3442.2149582785987,16277.877806361837,1812.0849239465858,1422.1235080197564,387.1633495782372,1489.5391377267724,3296.4485491743853,16220.3336165278,1814.4752181219596,1403.9109402693525,382.529920007878,1564.5942987081164,3242.75211027723,16421.227995318943,1824.428330573215,1429.6712775046408,355.4015471929023,1435.8943176146222,3335.6580510554004,16409.200118754354,1820.8861446860399,1413.581470350358,367.3381437070992,1485.0108163165207,3290.198053826337,16453.88649338644,1818.2331280237502,1411.0771677303112,373.5934122073055,1384.8975977599825,3467.1567871495836,16329.955182943726,1837.0920154044802,1433.9922567758952,357.3163751726785
1528.0,3504.0,16260.0,1841.0,1415.0,320.0,1464.9978033707273,3488.5166984143198,16136.792952661233,1851.461775474968,1429.8008154338024,321.1786129222003,1499.0326624907182,3582.9452248289986,16233.535137300982,1851.2131489419305,1411.4146791004225,316.7060112466772,1430.5292041262016,3448.611087368713,16325.547752717772,1846.665835189083,1415.5732510236955,333.9481428283914,1559.1559381688653,3356.3383287927363,16169.238148307362,1836.7083157457596,1414.5685733980908,314.3828584947829,1481.9326895846975,3764.283011438438,16366.755348067716,1832.5590342059588,1409.0762996233232,292.8543996346457,1651.442728091352,3728.3431955083724,16181.001404885781,1835.605181465414,1405.112306676134,309.98226831958374,1555.283883882967,3384.510742428103,16250.801580447702,1812.9827801798137,1403.3611775274205,322.052602976905,1483.4011845031494,3546.388744971315,16303.198666581604,1837.827044306884,1398.714364167259,325.0431590918875,1571.8468650649856,3585.338986685283,16191.422129693303,1856.9128760968824,1398.1680114008598,308.3890143871132,1508.1280119202584,3585.459462166567,16401.913934229415,1827.3963483591158,1421.6895613661513,323.9494666245276,1591.0877303663142,3415.317876227105,16271.349282433841,1849.4070293927718,1423.9592694968512,305.5563387986563
1600.0,3356.0,16344.0,1782.0,1363.0,265.0,1668.4355901623567,3244.6196419325915,16243.993965464213,1780.7398538837112,1350.9199928717323,249.8339938675789,1433.3011813157475,3194.7024654590755,16452.103090988192,1792.2737663986898,1364.439680960241,270.72968487349397,1631.2185689225826,3331.289010298295,16282.905279094733,1776.0811845873209,1357.4381894898274,263.2928449916922,1662.3454571248271,3343.9098022528055,16230.085326875043,1785.1047034266728,1355.7296700006777,274.23892396444404,1573.4557893061774,3308.2127152150556,16274.187590852667,1767.8359472353457,1378.5806784178778,269.3112319179887,1657.8033830613388,3355.468609663621,16431.92355071336,1774.1561278552886,1360.862896672016,260.07457147333156,1772.520323591793,3252.209622327633,16184.00273488875,1787.6759804064357,1358.809446683621,262.52212838783294,1638.4330930607473,3139.1653868063318,16191.553415089518,1782.0497395508114,1350.2596497393765,275.2706971124866,1545.8965015153562,3346.9667310694667,16298.858258195929,1791.9439366937547,1370.2919656212473,270.6657992982787,1677.481478629872,3218.766079730039,16351.765637583043,1772.1419832001138,1352.5921606255197,270.9991625630444,1534.7976241038837,3526.1540055060505,16182.738076104282,1786.4164638667762,1370.3704785301643,275.10417793489887
1512.0,3360.0,16404.0,1742.0,1365.0,276.0,1407.0000775325618,3309.325790083332,16494.783627500627,1747.6669812786258,1357.621656561902,264.8746025545605,1649.742213192595,3271.7120284251937,16306.273312066132,1760.3775723987349,1365.374274543014,272.9356583738366,1599.6078634857458,3343.421755439469,16596.033848730694,1724.966735729073,1368.2327462408248,267.89521217532257,1696.2257937769741,3325.2661162018644,16443.727278070826,1764.8717048698654,1363.050657268882,277.60493032428894,1503.984109054293,3274.1822634711484,16419.20005226352,1738.8847511263411,1364.116831171885,271.2376140496945,1539.469606315409,3380.1419765841997,16495.168519531926,1754.3736997889125,1383.099112628001,286.89922923865186,1550.7691224953637,3382.536834340357,16233.561742021988,1744.064162000592,1374.1906140536732,294.97468767382065,1400.1549008451725,3415.190808988487,16195.655218048478,1748.8077286057767,1382.700594932154,278.84359511712023,1545.437870978127,3442.273855631355,16501.859389979018,1748.575589111153,1356.592232639743,258.9652644874512,1418.7817287717608,3274.065318651053,16264.633003471281,1736.73954954356,1363.408397047601,269.3698329777279,1570.7821527279677,3508.007107850888,16339.748902691374,1738.579525050583,1360.9214677495493,270.27564029922763
1588.0,3356.0,16476.0,1736.0,1354.0,263.0,1579.7499702522568,3418.4440935701314,16468.555086155528,1751.9471628838858,1360.6286525585147,265.5642469737691,1440.5276592516848,3398.0695936553193,16580.81907505007,1759.5934736479385,1340.5051307357223,246.64242948615023,1699.2777995056167,3404.2606058396154,16516.083028151155,1740.9061918486054,1360.451296827673,265.10805823932884,1564.1294999324298,3427.806997318597,16636.194590712475,1741.1550777560813,1362.9098556216316,270.8481615816083,1730.4142000744328,3371.334662772717,16458.819754359243,1713.1945230632352,1366.0930408450406,276.4664567896255,1577.0638052770958,3305.626951289458,16468.026115265227,1734.3471944743417,1369.1936839894524,255.1855695036832,1471.4230327733926,3266.745113598142,16503.76328544,1758.3004201772562,1347.7056053796812,268.3749172005742,1493.9515006729878,3308.506286820002,16694.092475042344,1735.6138340792866,1345.004816651152,270.1195997127332,1617.5898336491864,3292.929121116632,16454.81282618009,1725.3204157904802,1357.5828619712886,255.55368448434575,1610.3329056807581,3202.690556100604,16529.380308991138,1747.625375757673,1361.5494336440202,279.51916124519914,1559.692713625596,3403.4435573744445,16465.086452315194,1729.2683339694777,1347.1587888118684,253.48415673661134
1500.0,3448.0,16392.0,1765.0,1356.0,295.0,1573.8687999989606,3455.3086495493726,16451.906037240253,1746.4085039599597,1333.035135489139,298.2495391232465,1523.559229057892,3588.152023728066,16503.53413736245,1754.7205866225213,1349.2438180290933,287.4327085789434,1354.3516568523012,3564.736469194243,16344.42700967903,1772.3037507237407,1354.8305093454744,287.0543270501846,1384.75874506455,3303.667957853267,16446.795600684683,1764.5555445372809,1373.9841506471873,301.8016729318617,1506.725777394427,3371.62676436056,16344.767361411019,1771.5811995582587,1357.2136468659792,301.64407660640734,1623.68309559371,3615.458814178539,16460.728144522043,1772.7461084269478,1355.0947752750958,290.9459364786345,1455.9138212977173,3525.691174603696,16520.436494954938,1747.5612164430104,1339.4575460057779,282.2645625631041,1566.2326680433719,3254.1769124783145,16320.85392131206,1765.6212601573186,1357.1987907759838,295.9246849574131,1549.182670380074,3315.851006353718,16396.34916457152,1766.816455945428,1341.7636721861186,310.9186227107039,1509.9663053064548,3258.052672287783,16324.122347335218,1771.1541044670362,1335.1311121384929,291.29888630252157,1623.755066964959,3501.2573993506912,16361.476014990618,1765.2000182149482,1356.1518136723691,309.5022644272481
1476.0,3324.0,16436.0,1773.0,1319.0,244.0,1449.0674821628215,3594.6752849240593,16557.57603677933,1777.4436894799835,1305.7171837244239,238.33534454674125,1433.4795608762824,3393.365119832431,16363.00915926523,1768.1295870303354,1321.319931426059,227.72481032061657,1513.7018598616755,3306.3587881441745,16286.861902444653,1785.6155776832088,1333.9489477415545,259.3275327620489,1526.4359169851853,3374.5235142339493,16433.26322496749,1759.2086422291084,1306.3532261380014,235.23348947754604,1516.7948738803611,3357.1918411502556,16322.508470232637,1767.195292344463,1317.0918402048155,261.3329932744119,1416.5243669147142,3348.372265675744,16572.205005492466,1779.592722466823,1342.76554927324,245.206686758351,1412.3174822084418,3498.503486767444,16361.281179378624,1781.40437068896,1320.1777254121298,229.51641583925633,1501.0384598125233,3293.6933564879323,16297.515110349625,1791.54019639859,1309.5405856318657,253.12767123644673,1383.4371072430715,3294.2624690364028,16264.537617187141,1789.881801060537,1320.8461319476762,255.44427609400813,1534.4595589675118,3290.889710940524,16358.069157397558,1771.6867619233742,1301.496837766893,235.80438171040913,1464.5569699611406,3409.1067975527653,16585.238778573803,1761.671866968036,1330.5741614690478,237.52846205650778
1516.0,3316.0,16456.0,1730.0,1390.0,290.0,1545.8238653596263,3307.2032448108507,16557.308598225194,1718.6286285720576,1401.6590660886266,298.34155950257474,1552.1899860686174,3294.8438125153175,16366.540358810897,1712.0102717517489,1383.2182045424495,286.52732565564577,1520.5965370600984,3443.717176953394,16501.660534587714,1717.410747072971,1394.591838550055,260.12104382588825,1572.6411516437483,3182.6818871666565,16516.831693653938,1736.9076514424585,1400.0213072647564,305.81732289466044,1363.3695687555849,3542.3185326711823,16323.620450672694,1740.165814738848,1391.2914112301037,284.2377391213587,1286.2942991564787,3362.2479722127696,16652.464470917344,1713.3314801892523,1394.5237522850846,290.34919939111205,1511.040471941693,3304.2759191429063,16476.913729183536,1743.085225989071,1374.155282464415,283.6622210217445,1319.770895385756,3326.506550680758,16554.186966867033,1713.9043050221674,1386.12239279506,290.10196497884607,1418.4978519852043,3238.5566378379744,16543.816922183476,1717.5403968668231,1394.7695645784459,302.09754320715683,1572.0404771272144,3261.954647354224,16541.466967592278,1736.5772274767098,1394.6203957253597,304.6088647595287,1344.0486811619226,3197.656376811552,16514.12714019501,1735.9066605914595,1375.534182568957,294.68102560055956
1556.0,3408.0,16464.0,1765.0,1359.0,249.0,1597.9808370952182,3365.30779101592,16452.002880016393,1762.7712029009342,1365.4829972475084,250.89782090428196,1525.5337916204471,3464.2806818865356,16486.941173139578,1751.190661188659,1362.8386939049149,253.89738837497674,1535.1630479761288,3348.4675655062065,16453.638037349443,1753.2034739224337,1354.065559997332,235.87523356379114,1568.5349476906893,3600.9874484367047,16679.38280220271,1783.1365890531288,1364.994580841263,242.67365814507284,1677.9267073107555,3596.5526351185576,16535.356815929874,1790.7891329736522,1365.201422919764,252.43473956162416,1585.327352756049,3349.620031202558,16466.965612103988,1744.5374489763346,1354.3547905135972,254.61185459571047,1652.6852682864103,3555.610187718925,16421.25349490044,1761.6547132246405,1369.3101584627618,257.93596395976465,1597.573873470089,3362.274412576008,16454.81134426383,1769.1910358183216,1352.9828982956903,238.33877632060037,1414.4054365645088,3427.0592333737277,16420.761600640068,1754.5759023770304,1359.6966286400327,245.7795636281149,1653.0526183667293,3206.4800505670605,16361.54517671397,1779.7005748360316,1367.4064376578756,242.7522002008424,1537.7008404700061,3399.8081700637517,16334.984998284293,1769.2731750673643,1336.5648610951112,242.32881560042964
1488.0,3400.0,16448.0,1717.0,1356.0,291.0,1542.871181004773,3471.004328555998,16471.84654006264,1729.3675188353739,1331.3043230025828,293.2863704516139,1536.2791934225909,3384.3786269307375,16261.927198285677,1723.4859297008863,1357.616237106909,288.31990795128195,1477.9985478257943,3402.391241958514,16459.581087132094,1720.8852715788203,1358.0660227156795,277.10843685105834,1543.8527573807617,3458.156616867204,16436.36499528478,1731.4205989696309,1363.5296398726052,290.466211655635,1386.3782853645305,3409.407800245094,16541.621390227938,1708.9333083684573,1357.4189829329773,287.9242177954483,1507.9595291291123,3549.0315188506656,16347.787833434606,1720.3086145199215,1356.0711813039254,288.35709644910406,1412.857703967279,3498.08531655536,16526.138770665013,1708.8781956483908,1361.7098193216086,287.2565958251517,1557.1404033641631,3283.0973129446247,16716.42485043456,1725.463909116326,1367.6283540357163,277.82887326587684,1587.4361069331026,3468.1198025646186,16242.847039612263,1719.6458572692911,1357.7835159740291,304.4550930992471,1423.1632533280363,3468.9029021449346,16482.03560887034,1720.109072017773,1367.1042357784631,291.30767754409356,1377.9785071553533,3412.544615568888,16573.79819434736,1711.3959538022505,1362.2996927355066,287.65622877978353
1464.0,3384.0,16464.0,1716.0,1333.0,273.0,1424.2800904507594,3574.5113592021617,16402.84115327044,1717.490347045008,1331.6067387340388,248.22664264720368,1557.4072394733355,3334.51520302465,16561.846008752676,1715.5861921253318,1319.5483301850509,279.5797505209689,1432.8183039523703,3416.3072884238395,16473.664137784614,1718.62113405345,1351.5315801530905,261.82379269590587,1582.8993688484084,3358.2763067582378,16438.548915107403,1716.2869894823577,1329.1255127810502,285.83973482949705,1266.3045504868714,3447.07077270577,16560.501161019063,1710.372216198502,1351.2714725537517,264.98912962859015,1561.6488242182336,3342.8162604991326,16383.590955595608,1709.9831766797884,1328.9052813921053,281.6584870404669,1643.3862872061459,3407.2681630257334,16401.487579803455,1731.9202649225097,1336.058013295186,269.60700103539756,1488.1201622215412,3230.713374850894,16320.439360668279,1710.9622151934714,1335.4839466228518,282.15002899835986,1489.6749326854651,3398.6424182642236,16374.710416467673,1704.041991954807,1344.91508664489,282.65516104672645,1467.329243839847,3397.842801394754,16401.130631293498,1725.366976296588,1359.4918081164535,293.02255089011425,1488.983347379777,3427.188685633705,16648.373259476975,1708.8261330682808,1350.181848517903,269.01514868595865
1504.0,3400.0,16500.0,1725.0,1366.0,289.0,1433.7705818358388,3572.72344628087,16503.33421629356,1723.4768876339315,1381.139893503322,279.55734324923725,1514.771560002574,3493.3392153750992,16377.241267282168,1713.354165760321,1357.195477931222,288.5270664486386,1434.3529588825386,3284.0358234413025,16389.770044750087,1730.612298471527,1356.8187721484435,295.80400649114176,1343.0088945392426,3454.0675056097584,16754.27080160729,1714.1092787267198,1369.6843776797105,278.6632432129817,1558.2281462317699,3514.7523042396806,16443.45637072035,1712.428333858903,1380.3393587899623,286.242326136981,1581.9337631457702,3449.8432510286,16437.84383912589,1730.5392805810156,1380.8858952857604,279.3904738887979,1644.865518001851,3377.1996054131046,16357.05988942635,1720.1028995341312,1381.0251195747628,291.4105415441171,1560.6120740725473,3598.200853832294,16603.26605971802,1740.8422545502754,1360.5827867473188,279.48604844249064,1390.8888517646499,3577.099431970134,16530.12701810349,1717.8142574829444,1369.7984881344516,286.2275938398602,1705.3703697654576,3515.444933070783,16516.703291622583,1721.7606579367632,1366.5877343735651,275.1772957875852,1630.221755279556,3419.0182111265763,16493.268661534366,1726.960188109583,1378.1357591344301,300.6229501287747
1476.0,3308.0,16452.0,1778.0,1369.0,286.0,1445.556517779041,3352.9621584525453,16419.828478214135,1782.529040596955,1371.7516565586725,298.8714030092971,1542.3170567350019,3146.8897659067457,16542.96794820692,1774.2254507894522,1378.2367525631678,289.1923388193989,1458.399479115267,3248.384715261111,16426.055065196655,1769.493126456343,1360.3454336503694,269.32327519205046,1549.8668773652153,3203.805233186957,16415.13651620234,1758.6395633564564,1369.7435457354356,284.0229347579761,1430.5144603293713,3163.0982210077555,16384.302343148585,1792.405822834011,1360.5165446739359,292.954804601508,1405.0806466929357,3339.5478242802724,16445.639710169642,1778.1276394547021,1361.0286912678496,284.9437068821632,1509.6077091539996,3143.2218311426695,16343.935146801827,1782.8514744108707,1374.1151661560875,288.93499637178394,1448.1904053056178,3114.708896039361,16413.57916172779,1777.0092187518594,1363.5917641954186,281.45278147248433,1681.9245047735308,3506.362942472709,16608.605027077934,1766.9789667457742,1359.2524844832851,281.74982297212784,1457.308952647875,3405.6440976000863,16410.00936898362,1764.4553742321305,1366.6815598099192,281.86353091097675,1364.158387412516,3337.9332112222055,16385.96392904709,1784.4298067248878,1370.8496866124804,273.8734006721701
1448.0,3304.0,16504.0,1739.0,1361.0,288.0,1586.2553831816672,3375.8215233396318,16561.94316839022,1748.1536213036873,1358.0895111424404,287.7887716379223,1561.9193537982355,3139.974235144424,16374.62840828201,1728.9936273862893,1365.3521629720146,286.6001313651572,1341.7213553664672,3405.670027195508,16498.387000377727,1729.3411608795527,1357.722113367407,286.90395495474843,1428.166484269671,3213.430714206665,16569.460997608352,1744.1601639464652,1362.0855222157056,297.92597900257834,1485.9393659804339,3327.260116536679,16405.199930134953,1728.6282695039122,1348.590252076142,278.385879629241,1525.6950574561656,3284.4570512993437,16488.08707305075,1747.6652545159375,1365.38711820909,274.97013645862904,1469.8869730880306,3394.0988740335442,16607.08013799023,1723.6281750794017,1389.614311377632,291.4833382836973,1570.4501993991055,3326.3180340477234,16676.156471777682,1730.5007570382268,1366.0287960508933,265.8520063651604,1604.8442110170408,3397.436476821054,16617.085610141727,1748.0288174029586,1362.6864832207982,281.5120428853638,1453.8577934098066,3386.8485737006354,16648.88858565003,1718.4318852693505,1363.9287490635647,266.40359634080124,1383.3502113241254,3194.1431126537273,16464.718465892005,1753.7830358027213,1369.423816692974,276.684928113981
1516.0,3296.0,16452.0,1715.0,1348.0,270.0,1531.8284300478917,3293.6002587509174,16606.52497173077,1723.4583814287166,1340.441226089981,269.13041553535845,1655.8676573439707,3094.8334113478227,16476.079028928907,1717.0405175728717,1341.2861201305823,274.66693586109375,1476.1151516989269,3244.688440837265,16504.472666778867,1726.012869670182,1337.981527619658,263.07577420643537,1385.4696686524976,3300.4119701229365,16454.302685216862,1698.7755130495377,1326.332492676137,255.63597963112105,1621.2164587303153,3373.7672810846507,16438.938483674043,1712.8419319816298,1351.034225206726,271.2326131703777,1495.7990395791182,3283.994745499088,16450.364499178348,1707.5837025266453,1353.8980407830584,267.0551364715487,1594.7049347255631,3348.1841288203914,16541.397049782434,1702.1088787577587,1349.4192003347969,275.4381054896882,1479.4788587829469,3442.7803261065937,16427.853457878515,1721.3010617137659,1354.6714647680444,273.77420929526374,1591.101408739508,3377.119526054802,16481.60298977639,1722.917835592291,1343.9788705473852,276.8581715710693,1409.844927293112,3383.5123921117906,16595.823827881293,1714.8679540464875,1357.8491666670611,275.7169978328414,1624.5536371662943,3402.895326727406,16680.221513084452,1721.3366088456794,1345.1653653770613,268.60637179962947
1448.0,3340.0,16420.0,1719.0,1325.0,302.0,1428.2316416137155,3325.9593627074664,16550.195627923058,1729.3052065610914,1338.12502740526,298.7074172655084,1375.9344152286176,3325.1066729669965,16251.036168811634,1716.4627715760405,1324.1633918782336,305.3820788823488,1583.5603525857437,3409.159195789269,16395.85583892741,1736.9610337106415,1322.4729312581294,301.3725678426022,1346.2048301745822,3280.334074505353,16356.759732864379,1704.3994802849113,1335.216759640082,297.20283714546554,1492.0021127595971,3296.687174486416,16202.581441705297,1706.336961437047,1345.2446955911373,305.1415392722043,1524.4463441133314,3431.1606630843316,16498.241294788797,1718.1477557615015,1325.7489469996199,316.5204593722141,1501.3154483915578,3280.9944381738655,16281.296225722723,1724.2696437771358,1315.7097977016101,290.93504342531816,1504.186697220166,3323.0285343702194,16281.94654595934,1715.7023792858,1317.6370666679293,308.8873627987185,1602.7650252252793,3262.038134607541,16446.512639959266,1722.8813523759472,1318.0559108058587,296.75133318174596,1519.5321106807903,3458.8619006228596,16339.51692762779,1703.1130636919993,1345.1590045334897,313.19351065666694,1346.3908766604063,3515.7132363328865,16552.96836883996,1726.7706925231776,1314.8071266663408,313.2629541697408
1508.0,3320.0,16440.0,1790.0,1345.0,292.0,1536.2667253478357,3458.68002359199,16557.13008667992,1792.095550942639,1351.1959824619992,289.13532578917045,1549.930967808848,3259.7556785595184,16499.506926909078,1796.3509655883206,1357.1929185516988,283.23108867867745,1473.642287464653,3577.5651243056773,16319.55223536478,1790.3669642869352,1343.1114046168964,306.3289277281379,1538.690082545356,3190.5626755065377,16322.411234803416,1791.5889664610283,1348.514839243279,287.5298850417826,1467.9514952471507,3409.487740908077,16398.681177362847,1790.9018400022742,1347.5536083690915,299.2501587548557,1541.6205268171154,3194.2944560183128,16472.677231906928,1806.144590586748,1337.4636054417579,295.5752610941209,1440.584159049747,3400.4766590281633,16457.443125273578,1792.6032204856526,1344.355127839888,289.9529508283375,1745.9091186677663,3641.2944034783663,16308.0783079373,1797.9475286598401,1368.2447572196058,289.47697222147616,1613.0921130559502,3318.658414448686,16422.88197010998,1801.6396174723031,1351.0118436575856,294.65780237491254,1399.9136471645722,3408.4122960158707,16255.719576077494,1772.4602280790696,1343.8288770458666,303.70932099238837,1496.797007764627,3389.6480625276668,16508.823660946095,1802.5342797935405,1352.5343941081835,285.5347789039713
1488.0,3364.0,16488.0,1785.0,1358.0,289.0,1599.7816926373737,3408.100687936457,16355.213353384273,1781.1626323066064,1363.8940948541147,268.25885261401373,1344.9946228282222,3239.954025559139,16462.511256477927,1809.9642475946916,1366.1558876465842,281.83911887338195,1708.2842999176864,3456.0119135718264,16261.359607824807,1778.7791713876497,1350.0854865227404,300.2113926332892,1565.7517606058068,3576.0222964251907,16569.970261292605,1795.7270410948033,1361.0860113562417,298.4931241982201,1595.0109241773355,3330.7267647816175,16694.780978771458,1801.5952687096953,1353.476102150131,276.1470702519231,1432.2341328596433,3302.7558492673434,16509.073365387165,1784.6196949360697,1349.0322488920833,270.1865383813082,1358.3194224843867,3307.1991377370377,16504.625210946426,1788.7995329786143,1352.70929139586,280.44334558776205,1519.5210169651655,3032.6490894810063,16353.39563054314,1777.755556096455,1363.8229229743856,293.76730279304684,1500.2528744390481,3259.5449529488374,16604.107814224157,1795.668481236274,1347.0144565115431,282.29972378793957,1656.0076906814966,3439.5524683555186,16396.09631159689,1786.8976640663482,1341.7493682600427,297.96318658242876,1600.8436381973634,3389.4010795427635,16455.2287739409,1779.153202042502,1365.2625098988206,287.28342118487836
1500.0,3324.0,16416.0,1741.0,1351.0,276.0,1431.5086439029346,3349.7764893279736,16439.86982787381,1748.3366497224997,1335.2948023659776,269.12222429169844,1504.9730219472035,3431.347934986534,16396.71603294548,1733.7960477765998,1354.745931340697,280.533087937187,1387.9279454765233,3400.6533954847796,16335.353422648599,1739.1213661215884,1342.3524656624786,270.75569295946207,1465.4415381122988,3331.209224435148,16394.40330448005,1738.576927470989,1369.0055243375318,278.89609353181964,1414.7592612126496,3231.238410057978,16265.631958639711,1764.1410139160414,1352.1151197657641,275.9100564971506,1515.1484692076847,3319.0205998175184,16486.581985485074,1736.0040367618328,1360.6073708625934,283.8931293691903,1511.6398953235669,3271.3148636969227,16512.491335856987,1753.310383969696,1360.1556867637735,278.6456397329694,1384.752890588814,3531.54570419744,16429.45368305502,1733.6574343075679,1353.4356954909879,259.2744810128633,1565.7617359494548,3488.527389411441,16534.58654381295,1742.3707545450377,1347.472789558596,283.5616534200355,1389.2306994625774,3259.2144678798404,16327.103015601338,1731.0172347432374,1359.896572175291,278.76204978708796,1488.193413678462,3391.877160629877,16455.655611450686,1750.3545291285259,1364.1370137324104,276.5377114708105
1480.0,3352.0,16580.0,1753.0,1378.0,303.0,1428.8589312183203,3292.7252621757857,16483.278380690175,1762.7119317250367,1366.7650378322628,284.8799403670864,1513.4447295960176,3337.088618560652,16606.850895400745,1750.230100206327,1375.9481156338747,285.19852109491063,1466.1667612531542,3305.8620125907373,16541.396741779954,1744.6832640207895,1373.8234459968228,306.7393740145023,1480.5843474255666,3419.348680226481,16617.73435186085,1766.0844274069013,1380.692700546355,282.05630392329095,1438.6114290992114,3254.697785667628,16577.960586404868,1762.3818347305619,1376.7851207487183,315.5125217080952,1537.1764077972562,3189.8246802841886,16847.17374319304,1745.067204717559,1369.359496070258,295.9133144187009,1396.9427311623822,3289.702650561777,16668.568846080587,1741.5612751608685,1376.1707392971887,288.6646369079298,1604.3003228803695,3357.905697189703,16792.60528884046,1746.3051750673314,1374.1444973170799,296.25917139161595,1545.402306053035,3304.1488628447687,16533.702237123525,1752.9813518990954,1367.9347437616077,320.14285419410066,1468.1040997573953,3314.4013962041267,16642.559470521584,1745.6751363733138,1373.2815157258897,312.4230914432391,1536.2826423778317,3101.859961737077,16506.937858862075,1756.3469699669936,1378.5658502052634,323.42286809887867
1532.0,3372.0,16516.0,1746.0,1363.0,258.0,1528.7132945770659,3402.45925691127,16526.954195613213,1751.5380111895568,1345.3144190382202,264.4565733033421,1464.8023040944636,3454.4606413825377,16525.787320689527,1765.314832218631,1347.5661990148521,267.1101885558428,1602.4009279380368,3384.709629000698,16556.86889777486,1734.6318184654165,1361.6833582702334,263.69237537469155,1540.7103512420579,3383.126477476261,16540.659664563467,1773.0701917034633,1354.5907720616226,275.5458486522933,1589.8428681917642,3508.9328154204813,16251.50407900742,1748.1495275350055,1360.0524252630394,271.0865157332526,1465.2623168604332,3294.0167452814567,16501.245139262595,1740.408493715182,1378.633578052563,251.33586899298848,1451.6739708786954,3232.3194618544776,16696.30470457489,1732.5340631665565,1374.2545706359447,271.15191925176583,1520.628187286514,3329.7448528956875,16367.803582238506,1749.8284022219727,1350.1919246637183,256.56963899002125,1560.6025754804407,3284.1996753170274,16476.504463270518,1753.8529288037796,1357.494921546506,258.1257123570808,1487.9651796837093,3431.6226652886985,16550.88905012784,1735.1432728524278,1371.6378381653399,258.4366263092079,1671.1182808034173,3325.4347372317957,16514.077759891574,1736.2202566529827,1374.0163513256089,236.84812105398765
1428.0,3372.0,16500.0,1812.0,1418.0,294.0,1322.8875332058572,3241.636998582655,16656.45957732718,1821.475638472306,1412.1449400587453,298.6723482082928,1406.403044537383,3273.0854281660568,16399.535315582852,1805.1477448450764,1424.5114811177841,290.93509799892104,1367.3496362721373,3381.03230378108,16428.601404792713,1811.8575965534803,1418.309142627363,311.64517098138504,1502.6761731825297,3290.554405133686,16504.00801833122,1807.0934600366863,1416.3919290875413,295.7301339714689,1542.4520473376635,3371.632813068201,16599.449609759842,1817.494904286432,1415.5950388203182,291.24533139532775,1470.3423427269115,3486.4328387008463,16541.5423841906,1806.526986106424,1426.939008635855,295.0232357586342,1273.9175910394993,3250.815516369165,16557.042892392106,1811.4352030490402,1412.1059130024926,298.6332778530561,1193.8905379394434,3406.523289004853,16492.02273405523,1801.7064864136958,1397.1808858648137,298.1084499882181,1487.8109106571535,3407.9773872290743,16617.996686664137,1801.1826530558528,1411.9638366051222,292.6656430588099,1493.6458078428618,3308.382726473609,16744.094089427257,1792.7673907116573,1421.3368814933358,282.23596400472735,1371.3595605367022,3440.8168852019653,16558.812800660417,1824.0072330217777,1417.5398413568605,315.6389618059675
1416.0,3396.0,16604.0,1697.0,1377.0,273.0,1544.2590915057024,3325.8843153305006,16742.81374411779,1708.5551147735075,1373.6276352200655,300.49775732022215,1339.541540256092,3488.5276212630047,16861.210633804618,1705.9028880716498,1375.6778614883417,282.0730479468937,1208.3105793966615,3490.7280866798683,16640.43357189335,1706.876318206527,1359.542661609891,278.36818479927865,1505.930940429324,3381.5436127423573,16597.88942832706,1678.8862504757026,1368.3034209519694,283.95573557460915,1457.5497083499465,3418.74039224493,16515.933218123562,1710.917660272992,1367.5086571741745,266.8113142836801,1296.7878326108646,3440.464395779614,16421.916252507257,1705.896467917061,1384.3397938580883,268.45252397156366,1210.2914006528108,3410.2784287352,16600.449469161682,1701.8972979766593,1373.4629980229906,270.6833643415502,1327.8492167545548,3581.6895733676756,16679.045279908474,1684.8111323042651,1377.742451257751,279.0394844399817,1267.296831651093,3443.348583928848,16623.184988326168,1693.9664888826362,1377.908139049501,259.88295589374127,1541.4976556117306,3383.151356484104,16663.573171170578,1701.779876837641,1368.0397685146443,269.7133603415672,1365.261962743262,3326.3515032215205,16455.14897673438,1725.168463394634,1383.5266300832302,266.3708189091891
1528.0,3372.0,16420.0,1789.0,1407.0,280.0,1345.8356451946693,3415.732773171686,16395.849079040996,1771.8950665131829,1417.4925016927039,283.9271596521395,1472.520267101407,3284.0994894720393,16559.124738976923,1783.3629342180998,1400.6262684081848,262.9523300920489,1488.8685108511168,3491.336885769972,16442.019657661844,1795.862495962585,1413.0517989180776,293.08626631716965,1638.446958985243,3436.441652983992,16397.78116340396,1765.7546691207963,1395.8401020869708,270.05593204565116,1562.844123019014,3326.254800391926,16581.17644285919,1788.6953485341728,1408.991183607582,272.5043462437135,1544.2216449225873,3158.122077647323,16370.488360295276,1783.8888465423065,1411.9848786974012,283.76747308465303,1509.7180879258474,3435.2169964698815,16386.048074104056,1795.1063339683521,1392.6349661978848,287.874728803828,1563.2416236834463,3418.9031607943293,16552.636080947093,1783.838867810464,1429.1598871302704,287.6737525446228,1224.4487245808955,3170.6959969739996,16504.681975230833,1770.7394797118266,1378.440742444976,276.15072084951623,1533.1495635414055,3286.6833780730544,16387.917340012933,1787.7132207403622,1390.8810678731434,260.0733502569228,1513.9964849939922,3268.338967453408,16546.379524167616,1778.5573442414084,1388.1292240457308,279.5016959051578
1492.0,3320.0,16484.0,1719.0,1326.0,230.0,1533.3518191749747,3089.7885188448445,16767.034823322974,1718.3070227985008,1350.20430698351,224.85925527445616,1284.950852971761,3168.8215211244915,16442.037232661223,1732.6009572248513,1330.189838173964,231.77765309919843,1396.1714643104076,3483.720304085061,16343.079515220164,1713.9662075769302,1319.926897638269,227.04593254419933,1566.6644275699607,3061.12328330858,16502.58391947706,1721.3675446592606,1327.137001486826,223.8893590963723,1520.2089326903272,3284.347440322751,16472.146361655537,1720.1534177443502,1323.1981878948177,243.8592423971011,1369.4923523449668,3378.640764372967,16599.592944931588,1708.9050650262845,1332.4943842909818,235.40642723789497,1571.9824108783653,3203.8727687746186,16600.84359019376,1705.3220205227221,1326.0440105484038,245.5999219063575,1401.2887723223525,3240.479399322805,16580.52106823,1733.8673959873022,1333.7173167525993,252.18689556290053,1540.905947142337,3227.5628982715352,16523.24436542654,1720.3139002500084,1325.7838423652042,221.0761158364919,1522.971298832023,3233.878674552434,16542.372890570132,1711.5871821356288,1316.8110491251164,233.24971477946062,1616.4078465832786,3149.95154176958,16569.866857384957,1724.9432163034885,1325.8740110231988,239.14691398424202
1480.0,3332.0,16388.0,1719.0,1365.0,287.0,1593.060316505651,3172.8568753307177,16401.155241975957,1719.6697680817267,1349.7006493477618,297.91438682134856,1329.5318318397544,3339.2368331248363,16402.97066200664,1711.3849723617222,1377.899406932186,290.3733505751638,1470.448931414033,3348.859371048515,16508.87208022985,1722.8016100458137,1370.8539397408106,287.1908966311555,1389.5319054958218,3195.4464576950195,16395.283943350572,1720.0306240331313,1382.9426508849347,290.3540267958633,1351.2018497699266,3175.19393328346,16441.974447402605,1713.0174210107482,1364.4150191184233,267.60824043203274,1612.4001566011204,3342.1239793831846,16273.391566357559,1722.347743142693,1364.8276705365724,292.7266635287565,1623.488778221676,3435.1352810313833,16368.901038835798,1709.361289975623,1359.2117751641215,270.65353416865014,1450.3750482588978,3224.57857017766,16467.573171036016,1728.2992326326369,1354.19947560733,273.66709986237424,1435.278978984859,3452.837748132588,16504.498020670842,1720.9160130676332,1368.5465905948731,290.49525517279716,1369.3944197108935,3356.6372333649147,16410.10440835478,1705.488993781554,1341.2638758138812,282.6712503239455,1281.6557437609404,3462.508830120958,16382.730590392204,1711.0730265662683,1359.067428966751,284.32828711320155
1448.0,3324.0,16560.0,1719.0,1348.0,250.0,1235.2365928548495,3278.260069134319,16395.5611837677,1705.0824555425315,1333.1910747541237,255.65702116917257,1344.5010983230404,3266.604245822316,16448.092843687522,1706.1521516455978,1354.6294060789112,265.60878877734945,1572.2157708137215,3310.715142756614,16677.71734468721,1717.404770322015,1354.4217967077998,262.2360541864924,1509.5391253861478,3392.4110554884423,16575.54487734164,1718.8362509433568,1366.3208606496253,265.96160564596045,1443.6834316438199,3320.1871797195836,16537.939838569215,1736.6031841301824,1350.4377685116267,260.70715248395106,1386.7922260079445,3355.83536821001,16507.792069628347,1701.4759722316614,1365.7687208480281,248.30081878408774,1440.4700169406747,3200.200963438472,16432.665870658107,1715.406021839174,1347.6918068509083,242.98913430194125,1432.3515209691561,3221.9617486708344,16588.056470979664,1726.4120798835736,1349.2646857835261,247.4765367584031,1428.0722289136477,3351.4777237533444,16603.769071956147,1727.914253423034,1336.5898241141647,264.278522421415,1277.666285105673,3298.4329219912274,16729.82708290296,1713.389359724417,1342.2202299143091,256.4007455299765,1488.206289331303,3420.161631861464,16573.029213372676,1715.9271159394773,1361.3681392343487,236.64571260580254
1512.0,3328.0,16456.0,1741.0,1335.0,306.0,1560.2208028679277,3415.8069108175537,16501.155479870034,1726.0198637453334,1335.3665502097608,308.99952943591285,1303.6260280952488,3304.2342809038323,16444.951769896143,1745.1191870357907,1318.5878922560357,300.4192064995507,1568.0356030956186,3212.0798690574607,16582.03516307426,1734.278141674097,1327.0399326906065,299.67795415245473,1450.9340147924602,3454.943786869013,16390.57039701287,1748.6377577734547,1316.6969686282584,326.1581902462599,1672.3979048734636,3540.824156462946,16629.50353662121,1726.14214460268,1334.8453103683187,304.17779844373337,1428.581262137289,3388.3651371587634,16351.830175130175,1733.574738586739,1340.043701450396,306.45953612465826,1675.5155681723027,3269.4558799665224,16533.16952841023,1721.9879517866996,1325.6629698081563,301.90733146598654,1439.2279562609656,3287.6626707924725,16400.569218533492,1740.7295686312123,1335.2941798676904,328.98624347722676,1575.548452946282,3471.8708826304055,16505.635379456086,1732.5075872646821,1322.6408657551322,313.7525834129321,1561.5809250925345,3210.4845083650707,16423.249043916352,1747.6764729503716,1323.899577802513,320.2930454314039,1627.132401007616,3269.387236221391,16517.952587825053,1739.008106528724,1339.9653035782833,320.4302404031342
1584.0,3360.0,16472.0,1693.0,1341.0,284.0,1695.070557692823,3522.4380388344703,16288.079313957767,1683.2295681691098,1337.2800918841947,291.09395771981957,1656.8954801491245,3316.25180424324,16635.381653992416,1695.82788959253,1345.7468142535104,280.2542989856991,1789.8998240883734,3232.776613405828,16388.76628020268,1679.2945040767522,1356.4812698774529,282.4141351023804,1467.265509289616,3330.2252288254,16384.301142070144,1685.7000403184345,1351.9291632704217,286.26344992700035,1519.8871013654577,3259.023826742715,16693.721441623027,1683.2247548285063,1341.5040035045363,267.07447934685405,1551.3395839777243,3498.0582364631127,16462.259715621545,1680.6025524979484,1330.1417448703244,268.0226566086284,1684.463784291308,3566.5912966929263,16535.565558134196,1708.4422335688532,1345.2023152952383,285.8181345245762,1696.9793932887937,3421.972957244833,16559.453761354107,1676.1311199015504,1334.1541956638107,299.47789137719053,1722.846116586406,3419.0637871591757,16506.171604198666,1694.6227189667802,1330.198515967327,303.5585452443277,1430.135660364716,3248.0585408814795,16503.60002518415,1695.38718688926,1332.4782700086016,300.085086472452,1593.8959759343625,3401.585569879832,16369.510345919836,1706.9536511011174,1323.242058593144,274.49286845023636
1504.0,3344.0,16424.0,1795.0,1403.0,278.0,1606.687013925486,3312.1082506615867,16480.456545115183,1800.3753391510445,1390.1931361647994,267.9365801788129,1429.1867403353626,3503.361573393876,16547.103737366364,1805.575598437538,1406.3844868451447,284.10879178408214,1642.37837419209,3316.6656170035985,16271.739192901632,1779.8045211477192,1395.8035215659638,289.38286383700387,1564.121518637937,3352.40154843679,16421.08066827197,1791.000743773839,1401.6750751927925,272.02556916748483,1398.547808072019,3451.34372663006,16490.695630878377,1789.8418736647604,1395.5884050591885,279.66810643267115,1566.7745107567523,3315.24877097333,16400.120785147956,1780.3970755511477,1387.9803453725938,290.4671715136898,1250.497692637986,3364.1709270487113,16473.497540004697,1781.9480505132915,1410.8089167134176,289.0596239604273,1458.9574515982256,3486.198427940342,16497.25738320249,1807.5937517701589,1411.2862455168174,279.9795596370371,1438.9088366401043,3160.8320446304683,16418.964085027448,1794.4039215346124,1379.828514010811,282.11983830780696,1666.7559153681757,3452.8297413724217,16570.313231616703,1798.4952325297936,1406.7055963202486,287.3156992291147,1539.8256549289702,3289.762704487617,16518.759328580953,1793.1973878000874,1407.453437574951,274.2012613516942
1476.0,3336.0,16472.0,1722.0,1330.0,247.0,1513.0884012444837,3466.815455341754,16388.795024930314,1721.3547724723776,1341.4591765764483,241.0092610673264,1656.7375010821268,3299.4418895731974,16585.62209517188,1718.086029598771,1323.833553855342,255.22405473536023,1621.8456709562952,3294.610459829774,16488.454086603928,1721.9845828830557,1330.248909117154,250.37052610816468,1525.892690570551,3223.72667155019,16419.199012052428,1728.1082818528507,1338.0185822003066,253.87534413960685,1449.8035551382168,3264.7813879191326,16465.042528314283,1737.1011387978328,1318.715751715634,250.50782211682875,1249.2920641523697,3464.7544253026313,16395.697469631712,1717.4348564227216,1339.412998655113,229.98973482187995,1499.7187512936734,3452.792200938646,16699.477961948654,1713.4169530927757,1332.3841806166492,244.1606353263421,1343.9443341718425,3264.104842144507,16546.621994138008,1714.3658912374979,1321.9475573903424,239.44683127622412,1564.8801147034299,3368.343190446794,16439.74131238704,1717.7972122429774,1318.3333815567125,277.5623005377412,1583.863961659918,3266.8821284029855,16403.638151002222,1721.850881699231,1321.0655862805504,260.48171580654525,1333.7893570050232,3391.5545520999294,16301.59696483006,1717.0171908910213,1314.0001906150746,236.0021130271501
1532.0,3348.0,16544.0,1742.0,1348.0,294.0,1427.4887998277218,3473.5651409982124,16653.454172111502,1732.7910548695672,1331.022579671525,294.3853002076807,1416.2138504527977,3376.186386292573,16544.032484506046,1748.216638194665,1346.57997277903,292.7592630558613,1446.629554920264,3234.2082077133146,16471.79303409851,1737.7697478938107,1345.5141176506702,282.40996182569666,1762.8484670628845,3349.569350991009,16751.13406229301,1740.783400943967,1329.272074600264,282.4036185123472,1686.5437846127977,3385.921475424485,16596.05033767536,1753.4716824617965,1342.258197202321,296.65305453012274,1638.586615623753,3413.4861126976525,16584.06190238469,1738.5970751205323,1364.8113010741642,305.66991511263586,1568.3509907738824,3189.0174014186346,16678.709501814465,1741.9572447534745,1357.5247439479972,290.6323744419391,1526.2203364829807,3371.0726954860124,16381.648680611606,1729.018209314694,1341.9660504881713,280.9452891486226,1389.9501548606415,3351.972474359726,16619.647338809602,1764.7792933508679,1348.9971046059645,291.5496777531762,1468.1270404864567,3381.855829961092,16469.54767996587,1746.6279143101322,1334.1038715402751,310.70816072207987,1707.1088440475705,3470.150655053729,16500.53648062638,1746.3223110932765,1345.2767489330047,289.56206263841216
1532.0,3368.0,16480.0,1771.0,1293.0,280.0,1445.9709801976676,3416.2108966875853,16351.946729137167,1785.5996905447287,1294.6349304110631,253.76423038861046,1592.643633722677,3302.6717848746985,16610.65258292025,1783.1459521421787,1285.2641727812827,276.26237417022406,1427.6757999229774,3419.159687773291,16538.35327440433,1775.717199799193,1297.0439889948925,287.8439950326356,1570.2201439913463,3321.3762243003284,16388.258663282035,1753.5086315811614,1282.9031916195397,274.2977367072164,1537.4839851234985,3520.5541392305495,16556.282982454457,1771.2092434956573,1299.3266171317348,279.90971959222844,1690.3606907760477,3530.6628140814346,16560.917748961107,1780.4157276432688,1285.9559223099313,280.88665217297233,1423.913994684214,3299.2253218148035,16503.57880516134,1777.9374111807704,1303.9022775167969,265.8053647728611,1485.8602748986993,3386.0655639471715,16393.114608729244,1780.8395042402415,1286.1651975661564,276.9319442357595,1347.9822506240191,3487.348956224502,16468.024803149445,1780.6791899022276,1294.8392781786679,283.9503819970469,1457.7052389929015,3322.008871590094,16545.23972165209,1784.6233487790926,1288.4147448393664,273.5512158989826,1696.6195922005213,3398.6953889154884,16412.058956393983,1762.3602749521294,1293.3868645473308,281.8688892691912
1504.0,3320.0,16380.0,1717.0,1357.0,255.0,1526.069130901034,3282.578098062864,16436.7003710187,1718.25093663618,1366.0944340263343,262.316935135846,1423.248639412065,3361.8132755527004,16458.66689540846,1711.357547076947,1338.3685062329325,257.2435126155654,1325.0749821535112,3280.3677028188818,16270.89827618262,1719.1623340193876,1377.4888912391768,250.4409366508941,1547.4135259865689,3185.156131661809,16399.76097195536,1714.559279806166,1341.7408334414552,266.63794794424933,1474.7555507564023,3375.896364974133,16408.305254570358,1713.713398479753,1356.4922162939356,246.98917865755448,1516.738278190033,3243.596011441211,16459.21058563547,1710.6396207040984,1360.9653331621184,260.84263056977915,1483.4745950724116,3503.3268611331814,16309.628934535469,1730.4639094030756,1367.5596925352345,252.95428035623547,1698.9205827659111,3197.9604930333567,16413.077187505343,1732.553408219481,1363.4410177390455,243.75457429287903,1499.2864998537543,3397.0063728244513,16489.89411153654,1710.603136741996,1366.4849971716749,250.1787976137932,1361.7857880488384,3429.435767754659,16329.26586074781,1712.8129745171693,1344.4049148865183,282.78891151553375,1386.3191097987556,3489.482211130493,16199.442617696272,1730.1205227844425,1351.5186569616806,257.92319773822805
1452.0,3308.0,16316.0,1716.0,1363.0,300.0,1508.0495742811852,3366.886243535244,16315.975984211547,1714.1765065189206,1363.2892684208814,300.88691888539233,1377.995236237816,3411.6959215271104,16455.006834846135,1703.403836521432,1362.2134628963581,299.0394077976708,1321.912752138774,3435.6478900449138,16284.902718704376,1728.0767715372465,1363.3657867830361,326.30897157429513,1449.6338230491488,3251.843652519123,16269.642765406361,1712.3569155513228,1362.0555392558476,318.0373642718922,1494.4621662450409,3387.524085816122,16205.473079283558,1715.411361775704,1363.6202560787751,290.87339746553397,1392.7285074007752,3316.5710938409015,16091.276230654836,1715.5793382395807,1359.8078756172313,293.9272473105216,1425.824553196954,3393.9367356239986,16184.983850890563,1710.8607954897866,1366.438051027691,299.4790524080534,1642.3734423566618,3162.9513876819483,16356.183423732724,1710.333503149638,1359.5441341380747,296.7093830563203,1420.207117025327,3346.57507371369,16254.304873408513,1716.7972875750067,1360.305512759726,293.03580764255275,1372.1968150479292,3323.443578228228,16187.74042404618,1722.5799641820774,1363.9425981500317,292.136364684892,1559.9137897326257,3218.488141743803,16460.702885430605,1722.8292953518273,1366.0768687827424,305.3078763267367
1460.0,3340.0,16508.0,1714.0,1339.0,293.0,1493.6125212641964,3217.795157439573,16409.967748433988,1715.3225446393749,1351.7339099762105,299.54831082146654,1367.5264866945913,3359.0378778614913,16537.17224359926,1714.6071005208707,1359.3807642480936,284.5148421667685,1527.548769957365,3389.430147944661,16241.438568425174,1713.6496486676347,1347.409361546506,291.9623081574722,1403.5397904229344,3293.2563938386884,16540.245254701906,1724.2577255168135,1334.394381680211,292.0923226876966,1493.9665969244213,3501.9268737424986,16550.952672444233,1699.2196207959357,1343.3556437545985,292.4178557429693,1417.4904251380208,3458.9472480893696,16485.07260231753,1719.9244544460375,1340.8453503431679,284.51425354090145,1534.1573304738886,3359.7877120884687,16631.02876415362,1713.20303178744,1345.4062516458366,312.4768376298214,1506.1041742823154,3182.1751710078665,16555.109463469737,1714.8676232803682,1336.2055276300161,297.1099353808321,1505.0168847992081,3383.8520865126575,16536.81672938511,1699.9297202405653,1355.92720297126,299.1921903921147,1522.720481178246,3228.6770426107596,16422.911884806115,1725.2531628335164,1362.7224753286253,308.7729995299587,1348.9324108435728,3163.430827663845,16531.58002739089,1700.9632342128295,1341.9982052094063,285.86107951484223
1484.0,3324.0,16524.0,1690.0,1346.0,286.0,1394.9972559003331,3345.8709953218504,16584.6500934501,1684.8620531602464,1332.7273337366605,283.7321338653363,1529.8029358990966,3394.1885656398686,16670.778251771702,1681.4607195790688,1345.0302055669392,292.65084929811826,1610.625039062942,3451.8924149499876,16510.2699994649,1704.6146939320327,1329.1353849031507,290.1562461101343,1542.6763388025183,3324.9672672432503,16573.892164949546,1677.9207299157201,1352.2056794124055,280.20460465646977,1514.239695167629,3336.6481169259782,16408.062548805694,1692.8455351621428,1357.3856521806892,288.3219834451852,1336.4027373954177,3316.2335936411005,16526.870935037332,1679.3090036844524,1363.7299699545326,302.2898152990182,1323.1400262906343,3191.3780047306245,16488.95460466722,1692.2896602362,1353.9914021268685,267.40999365852974,1628.9842498308017,3343.194902518639,16466.831968474184,1697.0579289000284,1342.0416031583554,270.91093791546155,1510.975531402194,3583.3960813874755,16482.323611538,1696.00636122906,1354.3610490794813,266.03010276569773,1527.216638896017,3251.0709336463515,16553.699221705716,1665.1019093347356,1343.1210916249784,288.30850366310665,1378.3310120117922,3192.017483366886,16541.778684161367,1684.7516618779232,1349.304074520148,292.56566012631095
1516.0,3296.0,16476.0,1732.0,1343.0,288.0,1415.1754077000278,3396.082373807071,16525.22088890968,1744.62081290328,1336.351271439903,277.25766122953985,1634.8676186343214,3315.193991946184,16382.309641658367,1723.384326783626,1336.657013022812,276.7977046717429,1642.0890001653465,3358.861230678736,16498.726091643664,1726.173388680356,1346.3616317361402,285.8909872423284,1445.3685347302164,3426.2295314028675,16446.6290232535,1728.7369541201283,1344.2175303302731,284.33817191175154,1392.9698482839592,3485.9902622887184,16495.10839750299,1732.8380041904259,1347.9660603856737,280.34094892160545,1502.6486254513052,3395.6457015272726,16656.262050910318,1739.0902411239445,1341.940408773109,297.7130736788564,1558.8887232276604,3286.154730911167,16483.894663519277,1733.457493461015,1331.6665814942244,289.0244165932574,1476.3584844423476,3116.624912687052,16498.49255792129,1749.4707934747992,1343.6982910596294,278.5897850834743,1573.1845417452441,3451.2296366329138,16529.794479886248,1720.226984693093,1356.7554054641287,276.7344381445491,1509.1649573771272,3212.7608092660953,16580.45875911479,1728.9264750921964,1338.847608685669,290.4676756258721,1287.6802482985631,3338.8238138886,16452.4225151776,1734.9494548127877,1342.9899335830614,278.373704462566
1488.0,3320.0,16484.0,1696.0,1367.0,285.0,1397.1198155654076,3434.0760161526027,16422.4356147178,1694.6347040772296,1358.9933810873742,301.3201935743097,1278.9583516084103,3327.0265568709083,16511.027539841183,1696.3735243911358,1353.9938080139868,285.5807203086276,1420.358100467885,3292.6030583232905,16574.934789696003,1705.610281865117,1362.8369028343777,282.60809293858546,1438.1071972513064,3539.668384331498,16377.813714064983,1697.9576959655285,1367.0371297666222,274.36045508717257,1280.2030671848497,3167.924572100983,16670.75272876161,1697.2049992279708,1366.087989416704,292.5004063236287,1413.6202219252316,3522.6361994581466,16344.873361545917,1690.528366642477,1379.6189747481835,294.5538966483879,1398.490981534826,3352.5546347210384,16384.866260306804,1692.8636988863807,1371.6449497146536,278.61367425138513,1576.6006380915746,3171.7548777349716,16408.478844103767,1696.9448454650876,1378.0066650848125,273.86389044346527,1564.8823416438258,3219.4930054122574,16527.442304958564,1694.509943987104,1380.8883589830266,286.2211011205699,1558.1578621274862,3221.8215973323886,16380.651820042574,1693.058985324963,1387.5909004152838,285.1997281458949,1488.19592960534,3296.647957124219,16619.16515047211,1698.9949230470838,1370.0049761051343,273.52613790137474
1580.0,3308.0,16520.0,1737.0,1366.0,312.0,1425.6756693925618,3269.921372112488,16570.552116050225,1753.7126455644811,1363.7433768968915,314.39932430280993,1464.3940612909678,3262.5848011927237,16580.340728917992,1723.893424031502,1358.2896760541219,307.33652897720185,1530.9077688696718,3344.575516179315,16440.436965007553,1737.5114178063313,1357.4897649990646,309.45362723049624,1696.7274569138644,3049.4365176622878,16324.011133455784,1747.3761448454732,1378.4316871376816,310.2395295680718,1568.6604413545624,3347.4611283351774,16613.488505683992,1744.671681742565,1352.212884029525,313.8767402994024,1537.5281700717892,3210.2687601148896,16603.21803476459,1748.139446910391,1375.5132982663674,301.1471502529067,1631.3412229996582,3161.4674808112422,16498.307501996573,1733.5953291151288,1360.5704451493964,329.65995686868035,1625.2724660270421,3192.1400724350283,16576.919013160255,1744.043336295103,1368.8995118660148,310.14985134655245,1704.5118597630862,3273.610664842714,16591.931237553286,1713.6195361065336,1361.1412810974703,295.77895470363353,1605.4123285556518,3247.13192410554,16343.880361185584,1737.309710206524,1386.6111082731597,311.167190800078,1644.691936276431,3311.036485066548,16479.59600788759,1731.9177273670532,1377.1596618579972,305.8384213786989
1524.0,3380.0,16560.0,1748.0,1339.0,290.0,1394.1929619171772,3248.2092348995,16797.297819556086,1734.4491106669543,1330.5330236883867,293.3471124570938,1517.0255044706266,3332.596313111931,16565.324901547174,1726.9248336424416,1351.6453666090863,274.17592028402845,1644.085289680441,3372.397046256686,16683.949821734193,1746.9838983396037,1337.9129601350471,298.0734617247979,1677.7065923368496,3354.437990640728,16579.76575482969,1737.4765012345263,1336.4610065528275,287.1094572629011,1432.1934126961062,3390.549965753958,16610.940268545437,1746.9346484152804,1335.97884914181,285.6990028043154,1592.334750604394,3458.4199956034017,16478.969806542445,1751.8498262621988,1333.2875747543542,285.20723029356,1576.4825963143076,3317.00711778797,16583.365553611893,1737.2654953771726,1354.0493335376448,298.60550842003255,1440.5477800842125,3427.644692561805,16535.48924629278,1742.5736110458693,1333.4611157519382,284.63507463876016,1431.4400021048946,3444.0988051784498,16578.82997991496,1750.7043982168602,1330.3426866817451,275.2225106494527,1463.4493341769107,3393.1945592225316,16556.25264672002,1735.1846181010972,1348.5371209839207,285.90280570275263,1386.313262564503,3291.980401479398,16548.665078481903,1751.554856506864,1360.6125309360868,295.88881599580185
1516.0,3344.0,16556.0,1749.0,1363.0,287.0,1687.4978052708132,3457.3039286385915,16459.69387342462,1754.6235965598194,1372.8695650766633,294.3310033780653,1554.584160772137,3351.973527463444,16640.542866571832,1750.9802409197703,1356.3966864692459,297.7321678627254,1500.5797786524724,3491.1081885998956,16627.088305669193,1759.5969712009733,1368.0896889510632,263.5422616750107,1422.462701173205,3079.9360588833047,16619.179521989132,1756.7790362566877,1373.4420894030352,278.7414228742214,1338.1694401080385,3337.7458082891503,16703.839736782633,1760.6410078047045,1353.842447048057,278.6995208336943,1580.75911316722,3410.443220585739,16603.25333635957,1749.9759678560295,1356.1483004528668,287.57582278967436,1609.2689540006456,3302.578311915534,16562.248568541832,1739.0423421148312,1352.6657174195,290.03677463904313,1532.4154536344138,3370.8390430934282,16543.24629393837,1748.8315975445323,1355.2944542734579,267.7159415874782,1402.4178695626138,3414.0344991915103,16594.086774253017,1737.7993787664325,1343.2114428046289,296.1905649785533,1518.247277023698,3420.6595637483942,16577.358456815833,1737.7195899299268,1372.246734763212,274.90532680510347,1475.7559631972845,3272.814151572738,16491.760949660136,1746.9958453720578,1372.5829917968456,305.55129223940145
1512.0,3352.0,16428.0,1736.0,1361.0,303.0,1543.9050229615953,3177.6773717495844,16424.804014657606,1742.9033405607079,1353.255197217872,289.9668238258661,1557.9326950249515,3228.7347647881184,16370.533434067573,1748.707239533326,1362.478125110555,298.22349985141125,1391.1483607777634,3204.3056041640384,16372.313619840705,1741.8083438104231,1358.9748602102336,311.2257948832648,1631.2189143927546,3308.9214551819314,16422.10973247935,1729.3231846735027,1351.1968008031886,304.6456707513868,1433.7186919999053,3293.0868362594756,16321.879438979891,1743.0727350988054,1356.7355948928541,304.06099848400436,1466.6153784129738,3327.198984584786,16573.240959102033,1730.426534809879,1366.67775367322,300.00591705598487,1470.483849123597,3523.4758858094015,16504.428347718946,1734.6403084629808,1349.9508357485429,297.633271230024,1434.7078663347363,3295.581960240601,16309.991763943606,1739.3654760963232,1364.7378554239972,315.51609381743066,1429.639608010204,3392.6321603463193,16537.589479719474,1747.4071425594234,1368.7548768918916,312.95226547582934,1658.329804204098,3334.7625441588784,16288.40268380582,1738.3156738003936,1346.4795837276258,305.7227485075164,1493.3204108043315,3173.4137023730223,16296.919523299635,1736.3479791841746,1364.0180167705355,308.4297861561857
1508.0,3300.0,16472.0,1737.0,1320.0,266.0,1403.1381413776787,3291.158460025968,16511.220671047577,1734.6192279406278,1321.232681960154,263.858696878291,1468.8616660265152,3237.385497827698,16417.96288807357,1745.3338467256922,1305.2670871808539,272.3391663469482,1562.2057229100174,3307.7715956899265,16435.22866213667,1736.3945780875174,1320.474191325582,258.224939695865,1475.2496517185953,3178.1197384136603,16294.794694352004,1737.3881561405371,1327.4585844936203,271.2661978005432,1681.0329611510488,3202.0028821112423,16467.703470550427,1733.4908757433911,1311.0614932164553,265.4794408676312,1510.3755894278677,3256.417915639834,16499.920578207144,1741.8110201453817,1311.0654248993337,262.65308567910995,1619.5439386603043,3305.7570180598227,16495.866031501406,1726.9018192453866,1335.8188729297974,261.54826078791024,1497.7862937403868,3418.5539631514216,16590.302905821074,1722.1394513040038,1318.6187105883569,282.6920455364153,1538.2834107057454,3204.8758142103616,16487.059097355523,1729.8766051921832,1317.7884241156758,291.4542935123525,1644.917555437045,3354.4184163358527,16460.265154224457,1743.1290613197689,1321.347868969642,288.8738573694825,1476.626997047077,3480.180600817134,16602.308557325217,1727.2758228768453,1318.9088705696772,272.89491485078634
1540.0,3328.0,16412.0,1704.0,1334.0,276.0,1490.2936024675816,3315.378670001065,16521.43460724717,1702.3291949859233,1316.1724256827536,288.0902164063507,1509.869351154117,3374.831613566409,16326.104883679905,1702.1865897563116,1315.0558564804278,282.64924047819574,1742.883589875881,3344.7109746031592,16405.355783319177,1686.7176846812583,1335.4820561144506,279.6108730134317,1458.8349431980007,3283.0626494522685,16398.044744775663,1711.9926785258117,1324.7965083265922,272.2863710169263,1349.5847279030788,3407.8301348198493,16433.667655090314,1704.2232999450998,1337.5085971687947,270.33164344202004,1654.4500203674866,3301.5009954585557,16504.282302051808,1708.1973748443002,1335.3653256009516,278.23418608199023,1425.2389417713287,3101.0233473625312,16430.786047790407,1684.2995280973155,1322.2163045783388,268.940061488527,1538.9428993052395,3313.5049101564446,16359.258903659487,1697.8956253085096,1342.3417334828475,275.5057413572959,1588.4527854324963,3366.5247919050494,16420.264611078386,1710.1514961823716,1319.5959019520772,283.4461101393161,1799.8829670815903,3469.7738059593094,16426.684988297846,1701.5017637573283,1332.6625833731011,260.80688208738906,1682.860394511918,3219.8315044904602,16586.94092469358,1710.823851850486,1340.1420455821358,274.8637689075635
