IMU1_AccX,IMU1_AccY,IMU1_AccZ,IMU1_GyroX,IMU1_GyroY,IMU1_GyroZ,IMU2_AccX,IMU2_AccY,IMU2_AccZ,IMU2_GyroX,IMU2_GyroY,IMU2_GyroZ,IMU3_AccX,IMU3_AccY,IMU3_AccZ,IMU3_GyroX,IMU3_GyroY,IMU3_GyroZ,IMU4_AccX,IMU4_AccY,IMU4_AccZ,IMU4_GyroX,IMU4_GyroY,IMU4_GyroZ,IMU5_AccX,IMU5_AccY,IMU5_AccZ,IMU5_GyroX,IMU5_GyroY,IMU5_GyroZ,IMU6_AccX,IMU6_AccY,IMU6_AccZ,IMU6_GyroX,IMU6_GyroY,IMU6_GyroZ,IMU7_AccX,IMU7_AccY,IMU7_AccZ,IMU7_GyroX,IMU7_GyroY,IMU7_GyroZ,IMU8_AccX,IMU8_AccY,IMU8_AccZ,IMU8_GyroX,IMU8_GyroY,IMU8_GyroZ,IMU9_AccX,IMU9_AccY,IMU9_AccZ,IMU9_GyroX,IMU9_GyroY,IMU9_GyroZ,IMU10_AccX,IMU10_AccY,IMU10_AccZ,IMU10_GyroX,IMU10_GyroY,IMU10_GyroZ,IMU11_AccX,IMU11_AccY,IMU11_AccZ,IMU11_GyroX,IMU11_GyroY,IMU11_GyroZ,IMU12_AccX,IMU12_AccY,IMU12_AccZ,IMU12_GyroX,IMU12_GyroY,IMU12_GyroZ
2248.0,3332.0,16328.0,1762.0,1393.0,240.0,2342.697426552434,3516.1856331547,16316.737439782411,1766.7295056146065,1405.4354407747091,238.5033288847209,2281.2209795675044,3203.4782224753103,16281.10385835221,1775.3632181242635,1386.0612806131226,250.2322367438496,2266.7434108010607,3234.0757908994538,16264.600942991907,1757.7659285360885,1391.6155913619746,241.0234235632633,2095.2506505326337,3296.2235607747716,16350.95689488337,1759.98258003913,1397.2754587376442,235.90680130863717,2185.72526686977,3458.7026446616132,16053.443610288909,1763.3045283331392,1375.5771555600822,225.6820636580563,2286.262389263637,3381.7870862910645,16239.26144968481,1782.1429598723062,1390.4631126901902,249.91836139492221,2355.0414226206312,3269.4671440951347,16275.966772791231,1763.2312118377288,1386.0830161499598,238.18851631721375,2206.2342270860518,3152.8192631493416,16232.980914497428,1763.2949006090178,1389.9172519449855,238.43170309614266,2117.643608929568,3115.6216086706277,16147.193613584897,1761.6793058131502,1387.5741626972651,237.46396143492387,2363.5807226848765,3372.6779781960527,16256.607582659195,1760.586154212748,1401.5347875901443,221.21647396485793,2303.444859704628,3325.266984285807,16340.947694275184,1762.923172572793,1399.3115487064806,266.1611087042879
2244.0,3376.0,16352.0,1765.0,1368.0,279.0,2153.894757264911,3299.544245610244,16065.645512293931,1763.5293632974685,1354.9572584609114,296.8691501342727,2295.465815864645,3228.981629084653,16395.695300533855,1752.1356015943534,1357.013866976507,273.50171664136155,2246.0762356283685,3337.723750615991,16457.956445216736,1756.7401009270457,1366.2141848654446,283.60253254931536,2116.400601543525,3411.9422597904436,16168.457620246087,1750.942573575449,1368.0479355066593,280.5015078212304,2305.3691061175878,3331.4794574436464,16128.468574039814,1768.4821920545012,1362.3720090633904,286.0389140936135,2193.1920470329255,3409.4352850011883,16401.037871250715,1769.4337335233995,1350.9907349867174,269.383797748191,2204.4197476164572,3435.8805669465296,16271.52248940275,1757.589887519299,1354.453495190058,255.8637836597669,2166.168474218925,3276.263408624196,16500.894671086673,1746.3774367550814,1363.325455346018,284.17667956600116,2237.904718670545,3425.6492716735756,16274.820064972531,1753.1621575636248,1366.5613951287394,280.1448855025219,2337.5569535384193,3322.743583500178,16340.315971375814,1775.3372644530439,1369.7497660105184,268.704855094354,2245.401438634747,3417.609310809377,16347.864763244856,1752.9459535098,1364.632795235722,275.82951504890303
2312.0,3276.0,16400.0,1737.0,1364.0,279.0,2374.2918877336547,3252.106406085016,16563.471091188447,1733.6563193306429,1360.7911620880434,267.60679586764536,2177.657003968753,3531.0744670881813,16320.12955102686,1751.971592804733,1355.5518916241028,280.1771284190328,2445.763897278001,3388.019268144211,16349.740254202638,1740.8411127901254,1360.3463059259575,286.86300954670804,2357.312084370072,3166.3776083408256,16385.23174477177,1753.8603508954773,1364.8222647991968,257.2517835517248,2143.864222483266,3310.7778410118963,16345.870501625766,1750.6110650246235,1361.9991734439957,274.7288513905236,2480.625939491024,3475.705732667592,16371.492778450478,1749.402502502878,1381.2690920799523,281.24227485814185,2384.9843873723175,3545.669579180338,16301.186407093772,1737.8356150162633,1355.488876239111,290.3188758738852,2297.539112971964,3224.140276418682,16641.335538039493,1727.521114218591,1363.0245375371146,296.5669864906382,2345.18345498006,3196.11568447475,16286.450763697472,1750.3171954806417,1356.885293403869,300.98344872234304,2341.1213902655804,3187.4143350605077,16498.09141094238,1729.7870822259033,1348.7688883517492,278.5501586297114,2294.1939833355905,3242.5085177560304,16460.510801402568,1760.8374277248356,1377.467760815007,269.7301674031282
2284.0,3272.0,16420.0,1743.0,1376.0,278.0,2201.7439109934485,3479.2507807472257,16427.812187145977,1723.684659944743,1373.8173201139502,269.5283944880665,2233.278519194122,3266.4994604250764,16554.160103300124,1723.4893140542652,1386.6965895084888,281.536882237725,2453.2232259388666,3318.67736698667,16443.53190525831,1745.6983614516341,1364.338366122491,269.31829404509926,2275.003652659692,3157.2041375074014,16371.553605780859,1749.4019310011945,1383.735296174854,297.2137140605669,2374.8476280288214,3157.244488544467,16465.32540629468,1745.270649595729,1402.9455660219294,257.4941708660557,2179.7169530805722,3321.527031522708,16391.854624760592,1750.8248521623364,1360.4935838794195,274.583761232178,2422.307208872797,3454.7014451751666,16530.298265739173,1749.2399467773043,1373.6677690838667,277.42133888879346,2351.224916103712,3334.218827267076,16405.247391351775,1747.7845606317933,1381.52582246147,276.39393201055447,2216.49151586941,3209.987018276335,16358.226983470322,1751.7962307671132,1397.8192379764698,284.0628424148721,2259.1695505022103,3180.4415899742144,16395.080079873675,1760.600485695175,1369.3026842962165,274.5952509479323,2373.1791665700616,3242.4457183410154,16495.152994160162,1737.6312850613074,1377.5298352193706,279.0631891313057
2256.0,3312.0,16360.0,1758.0,1359.0,297.0,2183.7463554826377,3276.097795364571,16283.31059056027,1757.7371196024403,1358.3021121634895,293.33907418188926,2250.0441310650876,3266.8741981079133,16412.9370417856,1760.5429477501607,1368.8251536231166,296.81598956200986,2232.2976924654226,3212.025467249901,16292.164851116895,1752.063993775324,1368.2856778079824,298.87894401559424,2208.616794908551,3133.329500915983,16422.098197993393,1774.9769300351343,1353.2243257707566,312.2109581830001,2214.9084447087102,3439.5136001640385,16389.902338516727,1757.3297945624054,1351.2636700476426,278.5162659652882,2266.5091372758243,3182.5646215651827,16282.609156629136,1749.0795984574713,1368.7816817840853,306.1171197253018,2274.9071483379425,3366.1883733182403,16152.895168126264,1747.8149339120039,1376.2760522628284,283.43518023843393,2179.0218702881652,3441.33724864805,16251.104187453631,1758.0759911978585,1352.33511816442,295.55914296177343,2240.924228359354,3361.149194250419,16543.680331649222,1760.2073588550095,1338.0280186409107,299.2904631809277,2483.8483854701926,3287.132122820982,16197.808751859962,1758.4377716243846,1350.0084966114994,293.5355511989662,2239.747287112242,3346.1718219652553,16369.504820258222,1773.6107833490557,1366.292218321531,303.8807727058241
2276.0,3384.0,16412.0,1744.0,1377.0,261.0,2357.2865329496017,3372.801220240687,16397.215913587617,1739.9950914133256,1366.252276400654,257.84303853116916,2277.1042270148905,3351.790163250116,16308.738208938768,1739.2736310988446,1379.313487424087,259.9174125450955,2166.669042733987,3419.5882679929646,16337.462965849829,1750.8012370308143,1367.9745693509772,277.22155279200274,2232.590471245356,3288.86918591889,16377.374974773313,1746.7868479919161,1371.4576936385567,256.96124253815145,2105.606562127502,3345.920461182291,16538.409817570915,1739.1732485418836,1373.424905041801,248.70769170552737,2377.3795531099354,3453.304202067702,16391.907992024055,1751.1536151304756,1364.1169960668587,274.73442755630884,2349.6428034689625,3292.1108158587354,16429.5872315968,1743.8443259726052,1393.4293329691263,252.81520465488217,2282.980535142403,3400.943373539271,16497.48832851106,1752.6857142562176,1391.369732975478,289.4073828870283,2239.3064139374583,3369.7824065596446,16457.523018406493,1741.1960925032672,1383.9251706325442,263.2111018627521,2329.9200948465245,3353.3571884092107,16449.10361101544,1735.8577980885095,1388.730991208082,273.5327861827291,2378.224331102006,3421.2664322549927,16302.759802618824,1744.3103650390185,1361.8366029362849,253.06825741273903
2276.0,3268.0,16496.0,1755.0,1349.0,276.0,2335.6786535508554,3273.043239506963,16707.724528203755,1741.077351078093,1339.4132113595072,287.39188875596085,2220.6071655215137,3415.055115959464,16581.4679439954,1764.444340235209,1343.0382939453002,278.4077219271264,2345.445224881888,3260.462253714512,16293.370781560137,1762.4701853153979,1373.5074249847758,279.575337152938,2293.5644241005134,3268.6838006508706,16464.879063157696,1743.115973253742,1344.1446762857347,277.3083983806302,2171.5869523628085,3377.1609380333334,16434.927434663474,1761.5257797847028,1354.005523362261,291.88526934644767,2347.4950266634987,3250.0336727545714,16576.419791432676,1738.0918100145457,1342.332587433704,289.7024997542651,2213.5775932242345,3278.703711466836,16490.914495425135,1754.818126331196,1365.1352732516607,281.66594252645245,2303.4747073829462,3248.5297595379925,16683.52498878012,1747.5376695304672,1369.727605886346,269.27474381739086,2374.3011066129143,3345.346728209073,16573.15669156425,1767.2728232382635,1352.1234896620886,290.6316319601498,2268.434769128755,3301.217462692262,16583.87092856093,1754.6228543630132,1367.7984414140124,279.39348951865367,2102.784150168985,3222.8887822005026,16684.21728621543,1773.194819297459,1352.2509381096258,261.9728650385388
2268.0,3300.0,16372.0,1703.0,1365.0,300.0,2339.4743160058315,3334.747308690971,16101.48597922167,1709.6273560717125,1372.5999171631925,299.35954103984335,2397.068924450307,3246.2457468183397,16498.947687700133,1703.3940787269362,1362.1022160267755,296.89122459094017,2344.264891256364,3358.1743191040364,16365.65861000704,1697.7389290863746,1375.054887587293,304.18906864292666,2187.12871196208,3318.6599726561285,16262.830980737488,1714.4990555830195,1376.9625914451667,295.2026991057094,2124.978661720923,3203.19409460789,16326.532413614443,1712.2419544324416,1375.6608433868314,298.569549396458,2202.126818638709,3163.9337475478796,16179.698646076904,1705.8224569457764,1373.0423906939945,295.79873306771,2352.830089530266,3155.6913336764405,16357.26810915043,1705.8583398462154,1346.3714344736156,304.9724398763975,2325.573424084525,3191.0006215657077,16524.308782329426,1704.4755298660152,1382.2774129316206,284.7098514641344,2253.045833762039,3288.37728427611,16413.869474837677,1693.9482278893388,1371.9603269390598,303.0734902420349,2333.756950570013,3369.986189761861,16465.094976696204,1697.3280360256297,1353.1699038187558,296.3194321525539,2405.5442138997205,3269.533856193877,16277.04194432508,1705.9121835405501,1377.697748149337,312.83775641677073
2300.0,3280.0,16360.0,1825.0,1391.0,276.0,2153.225169377663,3265.207994921088,16253.385218839445,1827.7374525021644,1386.9292487777923,259.7654869260033,2296.704588145997,3228.358213231102,16486.70861700289,1839.033768743814,1377.7616403171355,275.22963033045426,2162.085754481263,3286.906263942898,16445.623934609415,1817.9513429349847,1401.590227257584,285.29210210625683,2451.0488868189436,3249.6436136623674,16329.579382216922,1819.6856102047066,1392.7374432877148,276.9576229791753,2543.8576215988855,3230.521088623568,16309.16258041557,1842.8383774437352,1393.2871865110787,288.8216373217383,2235.4855818061656,3424.7532435403364,16430.28694281102,1834.0462625201303,1386.9960576411893,277.5799552320675,2336.847365173997,3274.9685293628427,16361.578489684644,1822.730057462943,1375.1516447027534,285.9614869200622,2278.415814648585,3173.9968529940297,16340.22505144904,1834.874642518103,1388.282519323198,276.52367264575406,2258.7293031946624,3325.9023153962908,16234.77947290472,1817.0191572190006,1393.1342723587575,290.88990458387775,2317.1115268193194,3428.0681021914734,16513.114593070768,1814.8368220658301,1388.8698272935933,267.34145520956423,2202.0457753770343,3069.3586153871315,16262.778867055771,1820.4992278450009,1406.8477533573923,282.18145071482115
2232.0,3308.0,16416.0,1728.0,1373.0,275.0,2110.0533911763473,3356.6954728216447,16351.489075190391,1724.5827854184054,1354.3309309605554,269.4688380381534,2231.353915138203,3317.939737110875,16331.663566076515,1729.1963447404498,1360.9240604074448,274.7540082237822,2113.394820082781,3290.8350181978167,16326.842518520716,1721.6623587888325,1380.2551570921246,261.47606830109993,2406.3660708096345,3249.854213133501,16396.71101359709,1719.9429876576482,1368.5035219283648,287.2160008579538,2170.7612116935666,3295.261150286998,16471.18460419375,1705.8066417818006,1350.5896440174688,272.3915092946232,2136.214000337161,3483.1767845348845,16452.617721255476,1734.3884775515764,1376.3994391506872,266.71640395412794,2035.5797942869053,3433.7664679736654,16175.844049782287,1740.1788079621758,1371.5421008463047,269.6918587341029,2133.934882604878,3370.534077081452,16319.987451337165,1706.82880632897,1366.9824704924836,254.82125394916923,2211.6280481878625,3162.3794990665533,16175.930438780966,1734.6713345407788,1365.7998803450191,271.4238223193741,2331.553755704178,3414.727153417297,16294.362816953017,1722.5188483214401,1358.5420352590877,263.74299096061054,2129.8873094975793,3321.8450443502607,16353.069969782118,1727.9941119758296,1363.0043997700545,282.77866380907415
2260.0,3288.0,16420.0,1726.0,1347.0,272.0,2286.991406625725,3205.2785851331923,16428.289876421757,1729.6615250330094,1343.8753766381708,259.07947619085496,2211.5417991667746,3355.1918170847043,16462.290853204737,1724.2976976677041,1345.2745596362583,282.44380039481814,2316.30505790672,3294.4425002454705,16338.537497508509,1724.9067895220135,1355.7433018234938,274.2324177572488,2380.234728227361,3161.115784290444,16478.08751048532,1723.8655645151898,1367.3616537959826,264.70556076252694,2442.3081689719293,3316.467417486277,16462.27016995923,1720.1664409682996,1353.7876967989055,271.81251804808335,2258.679506172658,3337.392732387237,16549.103014941764,1721.638897422964,1363.2765658010128,259.51454868493147,2210.055406084136,3208.29368796952,16456.061210253192,1724.8059037172534,1339.1866796057413,280.7633700685152,2366.81249975387,3304.5646836552883,16418.03289947705,1720.9050397153414,1340.949606467318,270.56880874389987,2322.635580041121,3190.0459159757816,16483.96751162158,1719.0263351857302,1338.4006559920765,265.71185881337766,2198.021977204072,3322.464351716274,16580.26047563003,1728.124650588594,1335.112815702027,277.15158160635224,2039.4925340438858,3172.5257178548077,16304.486532700967,1731.6983525747564,1337.8882505164383,257.4891892579264
2224.0,3228.0,16380.0,1865.0,1353.0,335.0,2260.2557671672607,3152.281824785263,16313.718580283841,1874.5167630199592,1371.3960452842998,319.4055538157513,2348.2042327118475,3241.603106289089,16471.213083096074,1846.9813748597107,1342.2104338745694,329.50010837883417,2101.146729197767,3259.036286989703,16564.43106662839,1887.975734940924,1341.2295256613463,353.34085183523234,2128.176129775717,3423.8527069654356,16339.946783698622,1879.0153986819914,1335.497374356266,338.17352875327725,2097.6933453281085,3271.0392975473574,16287.014870744644,1869.6291441388437,1361.9942090037493,321.6515555265135,2161.2679924106897,3428.008029945003,16244.23745858423,1863.679821257932,1351.5087291830234,334.4392229034147,2122.3741958209616,3316.6428528335214,16240.818035225651,1854.5017760375342,1353.0294637446225,314.9850025211475,2196.7027229536834,3086.044803938173,16360.361080778703,1852.9147590430414,1348.533693853753,340.01250408856583,2323.14859884643,3237.6354357007976,16411.14313059898,1885.9413171257409,1333.050851549422,358.62533757409545,2461.285639619598,3213.0139389482733,16503.317444809014,1861.942871627708,1326.5065865372271,332.00761376769213,2039.2954059833883,3177.2874038452314,16506.328221749503,1859.6258364015096,1342.3286956410689,347.576120234544
2312.0,3292.0,16308.0,1748.0,1319.0,264.0,2328.0901033404034,3499.5515579426747,16199.366316603475,1763.3373618335402,1351.1156994759033,258.1949024929006,2222.2530286452297,3285.603026367043,16406.59341132105,1746.7774915179284,1313.09698880373,269.820058822563,2233.3178207856613,3350.787290255611,16399.435887585925,1745.7440006558888,1310.5088775049458,251.6977802262154,2441.3047721978123,3474.4772392074487,16218.221195384476,1748.8005198126568,1317.8878016343438,262.662866791435,2244.8908135697784,3307.805948994605,16236.540866474481,1746.1631866009666,1325.1268834753093,259.9752179382841,2347.447907365388,3172.929110369287,16357.90972596277,1750.67314569425,1331.7673186761388,260.4214276056593,2351.9048889157084,3379.2917846865216,16366.304238236942,1763.9490442332362,1301.8651625901314,267.7255700765997,2322.0245426525103,3170.7304821559173,16259.599759480765,1750.2760748536941,1314.188251368117,266.8205795163642,2247.87057941056,3126.08219174222,16341.295718151268,1755.610687624504,1322.8275689182435,266.2637734871605,2369.81351492211,3283.0072573469697,16311.68471362318,1746.1809307183644,1314.9407477444297,264.84886609658224,2353.0653384714396,3236.5849664653542,16334.185544951339,1749.0421473759911,1316.6963499841886,273.51426732096206
2272.0,3204.0,16364.0,1759.0,1338.0,251.0,2405.475552151799,3192.3524663719413,16465.804916206478,1755.7989092255152,1351.5480778433691,250.980770021351,2186.831370774689,3264.742294299039,16582.460790056408,1769.7346672902381,1336.8341512728298,244.2525877659051,2142.8457190564604,3184.3069390658084,16195.687496450004,1750.8482702675851,1333.88603964499,267.1213852046694,2399.3156049329637,2960.1667727423146,16411.62225894955,1749.7618392604404,1316.9468531630578,251.85940798571286,2445.624005978052,3208.7572225389945,16291.29381080081,1771.2105999631456,1341.7375514647447,251.56060990509795,2371.94229488954,3296.932253498583,16333.91413034558,1756.6594938890391,1347.1579416958457,242.55992402870766,2015.1592276957072,3212.6916796897935,16341.649146413618,1772.0998433587165,1339.7110317798993,242.85994557514604,2331.893010728911,3304.039966191524,16308.949301400722,1765.7689498121965,1321.543212056829,244.08031923280222,2229.2177090247633,3298.8324577550525,16537.766026361598,1760.3914269372367,1311.9247131639443,251.10008450594705,2183.9121721875626,3299.280527013252,16309.226694141678,1760.900817818698,1335.0231930815476,250.32671503206356,2177.75687888169,3188.499158944186,16336.213243334127,1751.3949610374061,1342.9629149792543,256.5891353814026
2204.0,3296.0,16316.0,1795.0,1370.0,255.0,2169.2476244634295,3348.1176529511404,16165.39749670153,1787.5661024327392,1370.6285551341498,270.10563859662267,2105.8175006713277,3252.9589245004145,16450.78127217921,1788.1285767860381,1364.2735388748636,228.59319429068103,2165.141498053843,3389.36198130639,16337.030425593513,1790.4166622158696,1383.2742628521514,269.3637568815446,2269.064488889276,3257.159554245209,16360.66729909597,1789.7011905268469,1363.8274881319244,249.518747737549,1953.6465850222037,3296.1085981682986,16474.88455370376,1806.9832953600821,1372.6302977155465,257.4925707730581,2253.0109032096593,3222.287579990368,16206.99652191206,1804.7411502024224,1367.879019534156,246.73451915269266,2437.0598878815517,3174.8081510084294,16331.672381067465,1776.0659777505737,1355.9597933532727,264.2530412530702,2146.1903282271187,3305.7464857059995,16372.94052942142,1806.637187691792,1367.9126916059968,270.9899683836251,2208.9023360561728,3495.2539202461767,16360.548317955901,1794.7400445428113,1370.9506675473551,265.49299924199545,2070.2819555027386,3445.2727860369973,16320.74919409032,1775.9755196143449,1367.3721528770131,251.85112692918582,2323.904872764824,3305.907328015489,16196.97784808471,1803.7275828623885,1382.6716665014544,246.05836355545432
2228.0,3300.0,16412.0,1761.0,1355.0,296.0,2284.0924862651436,3291.244719227547,16408.553969704444,1762.4082404505473,1364.0942509789788,291.17548847460955,2364.249109006437,3199.234281234877,16348.948620473897,1768.3890390683607,1345.5047303008346,296.56597564373465,2340.368609255443,3209.0517583766205,16497.469142670627,1754.0947000284248,1364.2861210396263,305.06405234577085,2141.6062566413093,3287.283730727071,16298.80354028487,1767.3025572555289,1357.1694591442572,294.45165668151026,2225.0693988788325,3239.7001471516924,16300.156141307814,1749.6752332893802,1357.8947087529289,301.98421478168257,1990.8674285950258,3404.88189301627,16434.85817560282,1766.6149550536352,1342.0940159422191,313.0561462422126,2325.798478510739,3262.256334145027,16338.740073207979,1766.8263800676891,1358.5479556254516,290.5043524827955,2298.102886645343,3285.175556835865,16307.562143210995,1773.0476129484266,1363.7864325220664,304.1863479354492,2281.15494978363,3273.7538091479696,16405.28392469169,1758.7144424176915,1365.6619513252772,289.3269857859051,2189.1436272393526,3294.1105863135,16482.989877006927,1753.039233472135,1338.2379038046763,300.2779857426991,2367.4256671757994,3397.574836629738,16345.58984958606,1772.333167160155,1362.5524631157118,308.53923353356544
2372.0,3252.0,16408.0,1712.0,1346.0,275.0,2414.9933843865206,3462.040943629398,16424.64937705699,1715.2060101450252,1354.1921997157635,266.47569954450336,2250.7459153397695,3233.81711116896,16319.042482370174,1704.7964670285712,1353.055270260481,256.79343718437644,2313.4550985890114,3117.4268564724525,16384.018247792414,1694.9197752583766,1351.89863055141,281.365323826714,2323.4360354129217,3126.497677437847,16230.270565337696,1717.277786461482,1353.2701821829055,276.2757129245224,2330.8672448950524,3231.6158127832828,16304.211164948809,1720.1200951250541,1329.426725401791,257.56486617559517,2367.2253943948285,3352.290862018642,16379.79225622148,1705.3075333742456,1362.7761704226375,271.62071621599364,2348.0276176262196,3170.159958671314,16477.939689083465,1707.8238193345321,1333.9142378905578,286.0262142121057,2462.71287322899,3169.186015111465,16380.39187974124,1715.6013048956252,1349.4597972167855,282.4138721814181,2252.000397531133,3379.910575523744,16527.674845306265,1704.8618166743615,1366.4836394875686,275.0179673847059,2286.715808319781,3238.8889762565855,16391.05457181739,1727.12180918078,1346.7117654597985,276.53759027354425,2372.4978288625457,3308.1549341248297,16363.936277239907,1703.8485008262212,1328.4642388844832,274.29489439553817
2316.0,3268.0,16336.0,1899.0,1421.0,290.0,2263.4397879573835,3224.622697680497,16295.25951957566,1886.366304743039,1438.8349925408215,295.5834327239167,2272.8295426200493,3139.2493847513174,16355.662418918151,1892.3020647345902,1419.3992995466397,284.19817810512313,2384.786442294297,3254.1985212263753,16421.331346240506,1909.4582916259283,1435.90267011186,297.1727336040789,2363.453787934164,3186.8222782299194,16332.104154259734,1885.4408592207012,1428.569722296039,284.8807185115144,2230.678841292465,3215.0281809173234,16501.754916365026,1899.5201026868256,1413.9171491049324,298.37240301755855,2190.977759302947,3175.1673454732445,16459.56361113975,1896.761112701669,1430.8835122835235,288.3509346317979,2168.4526776039907,3233.484137745348,16366.517594552002,1901.2722222592386,1411.5318012174957,304.576748981547,2364.968767324597,3371.605195532666,16369.484027772589,1889.5411542809636,1431.3984402701383,313.0429198491704,2126.1652301963118,3234.4117056044133,16242.170625165933,1901.764462416969,1420.4385001494504,294.15378971869484,2384.8822679448963,3152.4426391072143,16277.745514475586,1896.4321566657788,1417.7375562138977,287.0665443469842,2369.739074459255,3268.494286932417,16333.739650559566,1886.559436683087,1418.403994246079,281.51425144469516
2216.0,3356.0,16504.0,1825.0,1365.0,319.0,2237.89565166577,3377.8285410482235,16500.877772018393,1817.2294880824847,1359.2853737300968,322.3491341165629,2379.0442676281814,3429.223046878431,16407.12442129468,1833.5746874517336,1359.9397807384705,304.9740195124129,2162.788737062626,3362.3755947393433,16629.45350921802,1819.2448443057585,1350.237446938838,336.9963195046878,2352.571433449667,3202.8753892700856,16474.174212030754,1830.3633513632735,1369.810234357918,326.80677642242074,1953.3413847954307,3360.0950651647163,16442.379060929023,1836.0784189610722,1360.7014067243458,311.76769576632404,2077.6176369271443,3475.397022398056,16441.68042582533,1824.8433647571317,1373.3138065766584,309.69805089572054,2088.713079673778,3290.78143063017,16416.89095268448,1811.5996513481082,1354.5232830082434,319.93357722132504,2156.4915086922247,3114.2009907157,16372.996756612712,1831.1228857022916,1358.3787170528674,305.84061644618424,2333.4863295483237,3346.2767593040894,16524.590189061077,1819.399341630719,1360.199058915143,320.6687921886948,2126.1736156279912,3210.565091014295,16554.06355802269,1814.3709918463185,1375.0361009626101,328.44221829768105,2088.5865162480327,3301.5112036016303,16510.447933375028,1834.4374921515127,1376.3942619509314,315.0087259525419
2268.0,3332.0,16348.0,1699.0,1342.0,289.0,2304.2421238447414,3411.062113451328,16301.10502806996,1707.6091625108224,1335.8682629360387,278.46653834451337,2381.251687636721,3304.7067669959265,16346.38770402556,1707.4432675708415,1344.9393692815454,310.78480764872654,2200.0903003200438,3227.6130495169427,16415.000930796323,1696.7925824470824,1356.1564289519024,307.06940612920636,2221.283426028705,3388.9970011755736,16377.826106292683,1689.364184525916,1333.037604176161,295.768570325356,2211.681739846373,3174.160263447501,16502.64207133938,1698.4645717535818,1338.275333451208,303.87088572028296,2254.662770607637,3346.761014976437,16406.275916704068,1708.0859792336892,1336.4737240344239,276.6467283927534,2200.6840127659043,3428.589275987848,16486.829924249974,1694.649694267828,1332.6580353204192,308.4649469024207,2261.9783832506378,3595.2937314889755,16314.434119129559,1704.0174061920611,1346.2172667057373,288.18133536367,2221.212190645656,3122.0267410545184,16349.435784365276,1697.9610147744859,1361.5095445230475,296.5145595849269,2259.5070177358743,3283.7823085922796,16250.454795394802,1703.0905911018642,1345.6843600422417,286.8914362237233,2038.5125000677067,3216.8479610680424,16211.334328621853,1705.708351158124,1340.6751814804886,283.8521896909404
2280.0,3272.0,16420.0,1675.0,1352.0,286.0,2388.0616196201204,3317.787200660516,16376.168825001674,1670.3774025150403,1362.629019667561,275.03881454002277,2145.0857468137287,3396.717027421843,16254.922575491806,1664.4586941394928,1357.9873260447766,299.21374548148265,2398.7782038141886,3273.334239317493,16511.856898183203,1659.4871941668482,1361.3126003714017,277.43073595818623,2457.711665520019,3339.4769238371646,16289.045856368724,1686.5275443409348,1333.453352677626,282.12529184223877,2439.0502496823474,3241.2112250486775,16430.952373476488,1677.7319169410516,1359.4372597883666,293.5138169027706,2298.4433849544953,3273.028793207385,16496.681087121866,1671.734082529923,1333.8922803811713,291.22672804536234,2185.880762505116,3253.714580570348,16538.04687228765,1674.9474057275197,1345.2620200578385,279.3552668675774,2236.948664357611,3150.451685543284,16594.67437086446,1668.2434430630253,1354.2024558840974,289.6447460008837,2257.3270465443857,3195.6398241980014,16437.192193287898,1661.3545911771077,1367.2986721397756,306.5739585209471,2244.3952343740143,3300.244712389737,16280.044659016587,1666.8612432930793,1357.4255814573617,293.19499591437216,2263.6031820853605,3196.4969486191812,16395.764173460335,1656.4405853309877,1351.565256586285,284.7291690132928
2264.0,3252.0,16360.0,1758.0,1407.0,288.0,2301.9165149596174,3168.473762998396,16417.44004057923,1752.4924537063403,1418.708773957976,290.12870354154177,2126.540893566994,3254.7005618453177,16469.725065138235,1750.8380021380824,1403.0785308011577,294.5272505982745,2336.875133729414,3306.2088155466035,16400.822460866537,1779.1235321504364,1398.4990923181144,258.18656035316315,2170.532505491946,3350.219787440486,16321.183101057546,1754.5689131525905,1425.6699523834707,297.6089596216381,2233.2561550217592,3133.944906764953,16347.843683751134,1766.7261239331954,1403.4040233595726,307.2557711915883,2275.9915675847133,3219.153445500813,16149.769765212684,1749.843005893421,1407.607037020547,307.1489517240298,2287.044701427429,3341.690783840106,16396.956896168493,1765.1603940133932,1374.1337601899147,281.2433603809644,2265.239966642665,3146.9315803573086,16335.468058899198,1785.000991471483,1405.658718567941,287.9422500024642,2443.3514877326675,3111.381488774731,16503.759962316897,1771.666079194007,1382.7908758180154,280.8001265723418,2205.646126341505,3220.4905078512243,16484.208101122775,1756.6401158353744,1413.5062496122962,289.3712462955857,2331.8641768970465,3401.61387333475,16405.747846774902,1765.50316860172,1412.363836371275,289.7128441062968
2224.0,3336.0,16428.0,1774.0,1344.0,278.0,2266.5400416758007,3258.9736951939303,16464.576556046082,1791.619833524559,1349.1343291304506,273.5081699295493,2142.891610990028,3153.6452659375586,16430.634540350267,1780.4099462592667,1351.1509030370028,299.0004830327809,2441.762414111484,3287.1796854757945,16428.379526727895,1765.7678691599203,1351.5162368995464,291.12500065198714,2134.3327122226074,3290.6096157214956,16648.20793813944,1769.8878082524534,1332.2113740300044,290.87227825874663,2227.2573171167496,3268.370083226985,16493.41977187383,1776.6787565486438,1333.395531247607,282.8756455160412,2234.853684832882,3207.6564113757263,16209.964493713222,1772.3743566366886,1336.1089349117174,285.84158385493214,2326.5189044430253,3207.5772819644244,16521.68521339853,1772.1722555846134,1352.402118105431,268.83349687032535,2382.9181865656924,3304.3147612370144,16412.289762797493,1784.0776898583183,1348.446157248505,287.9227971421389,2276.011502783609,3189.312131509755,16484.813456676453,1781.0098582878993,1364.6866118905195,295.40997583312486,2338.1457203406676,3329.3203284655883,16351.902588775645,1779.165196097083,1333.260316124518,267.8296470637253,2303.50869559366,3180.9569766459367,16436.739278632835,1772.3531871980044,1354.661682162012,281.41909988596797
2276.0,3332.0,16380.0,1748.0,1346.0,254.0,2191.1072282488412,3376.805734292545,16272.076068735993,1744.8087747104958,1356.4163503423497,260.3126869494851,2275.244772445354,3363.423368626967,16598.947056527926,1757.9831884377886,1330.3327454006524,235.6514228671165,2452.650655679435,3252.6748011571012,16467.535580178395,1741.039807057469,1342.296209280978,272.1385331660724,2258.8685916658933,3257.275226250254,16426.350472794682,1730.961527393791,1329.8393632472726,252.705735751497,2211.034649011954,3402.839576465995,16217.337963261423,1750.3370365218248,1329.2951800216924,259.43494964189154,2581.0008816087243,3234.415461351625,16436.597215482445,1735.0734150421683,1352.7098619308324,250.70553115149085,2435.551889755987,3187.155529393236,16168.418451944519,1754.688825372069,1352.8657746150072,252.97365966476633,2450.0508021508285,3372.52337765303,16333.248376864558,1755.1626861121829,1342.0142674854994,278.9283851159926,2514.38150274419,3465.1463129857866,16368.668149392364,1761.9638284709647,1334.940106816856,267.5455784315705,2232.078430854912,3491.6170894354304,16382.204148831639,1754.5497984311191,1350.4475869699152,260.9708639099014,2329.5889412191523,3442.270738247104,16320.729641147715,1756.4320494217968,1349.0845161365019,256.226699900412
2308.0,3356.0,16404.0,1711.0,1366.0,266.0,2320.7576389006585,3289.9607224335837,16388.342282515085,1716.1388456729137,1361.8665189475496,280.19170308111967,2298.3283637119002,3383.722979938431,16339.338007680262,1708.1304353724247,1360.0163975595285,273.1899356699684,2280.149291267173,3264.8669999021254,16358.39854668059,1718.4650932193274,1373.130436249129,292.5689181972257,2211.411117047034,3444.645319553324,16275.552292181246,1715.1664776160526,1366.2841542150554,269.92561568021375,2265.665810367968,3362.7918625423517,16340.123180548951,1710.1960654566806,1362.86385227163,259.886938158874,2313.218596778971,3250.743308668515,16401.049822281075,1717.805674139015,1375.601428000316,252.8865277197959,2347.0744535121858,3422.6585924545666,16573.223738976743,1703.712745476922,1367.5058089373226,260.80319426870005,2384.6256081086563,3250.764982200618,16454.992216791223,1712.0631330909066,1363.2333678586197,260.3753293375392,2232.3261574545927,3133.51400602389,16275.358851114846,1707.7201505989494,1362.231328674613,250.8152029247299,2272.309432124944,3427.4439634146556,16464.48080812375,1717.67629434908,1379.5563988989472,271.71697938832835,2175.5478176716992,3533.9007983979795,16434.181427418687,1702.7452810786829,1379.0723025198342,258.9906743280468
2308.0,3316.0,16504.0,1787.0,1357.0,286.0,2313.64069756535,3333.2143153654747,16568.53934292673,1798.7975383272894,1348.9009107520978,299.5207939794569,2188.8399231276567,3258.677055174527,16536.617149021793,1789.8136423572055,1350.0429611115746,287.8487157996956,2271.824385785139,3592.5681449857984,16460.58262419169,1781.391037665371,1347.2124521987284,296.5741384765519,2370.408954608133,3291.2565099443186,16735.412767056012,1799.6128258361302,1358.2076203590207,299.8239771007528,2405.8517421617744,3407.367266101007,16537.74300798039,1799.9270480381786,1360.168965205437,301.65342000142664,2315.945648433419,3240.617485512572,16547.994033452273,1784.8431345648369,1345.9835322832953,278.89198222866656,2263.4102705623613,3250.0664654139973,16602.210144062923,1795.3333597541384,1353.2916778566466,271.22527638079055,2245.930164753484,3379.243135765337,16406.1689659057,1798.5766605270235,1355.8609174284175,278.2075612178586,2262.5668068249847,3158.501990185297,16385.444996341834,1789.2208401406074,1346.791741114605,274.3209950898976,2119.9419937331922,3564.6843412336893,16519.271423052527,1775.8020611944535,1351.1046405640388,287.5690383297539,2310.8354180571596,3277.5066032322393,16569.642336067318,1771.2494548733741,1367.3208350470202,279.76688863316343
2300.0,3372.0,16496.0,1735.0,1367.0,300.0,2448.8475022349926,3345.127163153713,16601.847145896783,1722.8975159962577,1355.940506848084,305.9755557215559,2484.458590700013,3491.1930826148287,16633.655334844632,1733.3728647833696,1368.1100198834401,301.0068065246867,2311.802211290393,3272.1209616378314,16479.380440728735,1735.3315439660055,1376.7602835163043,304.5026898702134,1998.6430197462528,3265.7477226694355,16377.013332698692,1744.594804858125,1356.5987098634778,289.47531548419914,2422.840973833501,3236.2754616069315,16611.375640398433,1736.7854794913778,1367.3216562815776,286.654051702947,2288.9818799012533,3455.812684971419,16564.521958217323,1732.8457326833866,1370.8961423172354,279.16024801889756,2362.486768427455,3439.534866683429,16389.788447559527,1712.090395486377,1365.64626900311,311.1279459950259,2488.925202450777,3434.9729879769866,16495.047641012185,1741.3214092360377,1374.0445056477558,303.0312169389974,2281.472587890974,3565.2972753421054,16314.987118603085,1735.7808114748389,1361.5235902297484,305.5046072378406,2513.452794966959,3324.091240985732,16553.65640475331,1735.993379466335,1382.482491185471,292.16669913642363,2321.7085896859794,3231.9561639974786,16576.532961713277,1734.6200210768877,1368.750291033522,296.0572462456697
2272.0,3300.0,16312.0,1748.0,1365.0,253.0,2482.611234279398,3345.687504563323,16339.330866132943,1741.5829294471089,1366.957174945612,240.62401130985944,2349.437266415438,3321.901984808649,16495.344000888686,1735.5043890703582,1367.886302068835,248.83636489336993,2259.1806344591546,3363.4153960120557,16399.175623049923,1741.0356419787634,1371.863131678153,259.16930094146267,2487.7671212346595,3322.9751657145343,16239.543403793228,1734.1955813325023,1370.3323015892306,252.54767007840624,2202.924955953308,3391.016185073019,16241.052405545493,1761.6215067269136,1351.4635074447383,235.41359016510722,2076.988972896757,3401.14268036589,16350.98132188428,1753.4363582238968,1379.104906465642,251.4076935325107,2296.2961585563926,3315.829657341202,16232.37051823118,1740.216567291302,1364.5448044503958,268.85806161701277,2516.4511992660873,3261.6560131504266,16394.176250420973,1765.7977842673863,1370.4453794768035,261.2663149065669,2229.6038617966396,3273.740451278598,16468.50133676903,1754.3070308981696,1362.2727062948572,268.83408897053374,2258.342300858544,3117.898943479213,16371.000490265835,1765.7045397605161,1346.1661498801363,254.19910830871717,2165.9470195037907,3193.3659196545664,16194.14048619084,1742.8343946871948,1356.3565322677525,250.34331881916188
2248.0,3280.0,16340.0,1769.0,1356.0,287.0,2360.3070327553837,3291.5753101148753,16405.094440524776,1765.0266559289196,1367.4165537721647,284.7426351980423,2257.0073252775837,3431.0690890850137,16309.365024920602,1744.9059690726046,1354.8429153359168,305.13664189149574,2316.302344284315,3259.3394958853696,16371.808031149743,1763.07675004898,1351.7217791264777,298.67136542457246,2175.3787865199456,3150.20525247142,16417.34683471624,1770.8329768633598,1355.0705800152953,278.30146708853886,2484.948344060302,3454.5399580166923,16350.20850455445,1779.0227740504683,1334.8456548159518,288.9719048914863,2226.2312572008996,3463.5764103678657,16248.112585173772,1775.403201538271,1344.6619717067429,272.1395463668961,2253.2763448548885,3242.65041417824,16345.30823062484,1783.9653430489998,1344.5412802431838,286.76738731878294,2210.77266080051,3325.1452068140525,16381.935752332996,1783.0109582410173,1361.3817861352925,295.74031886081383,2130.373500022634,3364.1511565751407,16245.328825204468,1773.6195057299508,1367.7089283385083,272.60573381289515,2214.4992259606524,3234.439449000769,16283.832425363895,1778.154032848901,1332.7470362789404,257.2473643093973,2174.190339196895,3206.079980078098,16397.488512604603,1760.1959207232371,1351.0509908888403,286.2903689199518
2300.0,3368.0,16432.0,1754.0,1352.0,272.0,2118.435067149547,3403.891115433829,16524.359491372205,1761.7488105242246,1353.2744130721373,278.07540922138685,2293.4405424749943,3454.8085115001063,16353.014106712362,1771.856073205376,1349.2015618593655,261.9136591112192,2238.9045491880966,3416.358112830862,16509.796773680042,1755.0603640592894,1349.8939349162843,265.24655862440244,2492.253379962118,3362.517329083983,16429.719449324315,1766.7413548094407,1347.6029700810282,273.42882689015784,2298.9876875632217,3336.299831275501,16390.838791825066,1739.4799479590013,1348.4462242377913,260.22090287422674,2325.978838419493,3375.893884121743,16362.572332397658,1773.948497908139,1345.1349970250874,286.0337226961734,2432.3636111914275,3456.9976082873936,16290.74868976953,1755.7951059330403,1339.3969069178836,266.7215519314363,2300.2082349059183,3364.7210407195525,16515.107214816795,1757.612719588044,1350.2835466396937,271.380438272434,2324.622619067526,3423.1242638895433,16370.352428900194,1749.7713768013402,1355.2652903194546,265.5691982775927,2273.370328662752,3341.8823487827367,16368.5124745357,1753.8629709465345,1351.459241218414,263.955799173353,2349.7287423601556,3405.539074793351,16487.727402157743,1761.1804312394015,1338.184618744474,273.9092554633449
2240.0,3288.0,16396.0,1771.0,1363.0,306.0,2139.221857147941,3199.0629246423105,16409.5005184796,1771.5636261057398,1359.7537846600906,317.42571799685,2324.358375131532,3341.5771451317864,16413.722278397883,1781.2794949314587,1352.2695605388988,304.0606225818908,2366.2371414212184,3327.9856399716537,16383.464225705786,1756.1702263711622,1372.5425091239033,303.2540513166508,2257.5895179562094,3168.1940443414273,16627.259264961573,1758.5564603078276,1380.5527847600224,304.0351945558182,2331.5381311261376,3143.3791210650993,16291.33708849845,1787.2154692748882,1366.3883769082852,309.3985928206174,2134.0020572740423,3381.871366314663,16316.001065133434,1783.3361234771876,1371.5292915559478,315.29180861565834,2169.508499502763,3246.3843077350184,16440.186113032894,1774.9842536895146,1359.9741315926788,331.2471375362269,2119.758622787408,3356.9523911003903,16460.09673876351,1773.339079499898,1380.0611515077555,307.670228172162,2348.2283765297943,3305.9994567266026,16357.43009379008,1766.364652636594,1384.2027716300602,316.575172032293,2187.5217812225055,3334.7387587658145,16349.136747199565,1776.0879773367315,1354.3653529155451,306.9265125598491,2145.74909333181,3337.7873049121326,16235.43100822372,1767.8960130330404,1366.3819082684847,320.58056599802467
2268.0,3388.0,16472.0,1738.0,1331.0,301.0,2214.545749608991,3399.8862754962165,16375.741844560545,1733.1015167165874,1342.8032818103145,303.53191681147007,2311.4348318308475,3425.155930650555,16433.864401727285,1729.331513182394,1341.4444204087772,302.5294594285075,2299.7421122355613,3405.7062991431594,16359.893621016907,1731.1675829898577,1333.1208562724069,288.0245210148939,2233.298692302977,3428.7877629478808,16325.974429553311,1737.0150373700656,1340.2358462704447,295.9740290613305,2206.8316568068794,3329.452470396813,16406.89672531393,1747.5444113032906,1321.1206088438448,300.4924136901246,2127.367000687258,3510.1415794388895,16500.45827628845,1753.2338723626178,1323.62978708729,295.4392067577564,2149.346253081889,3575.29776197817,16433.492491547055,1754.031211933366,1330.59436994019,311.0593826988949,2135.6844100080552,3354.9778991370085,16644.93948572436,1733.2515923421172,1327.994965454397,316.9810349752911,2197.0268765361798,3480.715805671834,16353.282673095984,1742.757267829302,1330.8359320727093,302.84941457305484,2380.187393607004,3417.841386978169,16482.758212460252,1732.8132122253744,1321.157875726802,291.2645184020306,2403.4121189279067,3252.7791084764362,16696.513027552704,1734.467982876877,1345.3807075886057,306.84927055245646
2268.0,3296.0,16396.0,1724.0,1336.0,300.0,2259.723746413669,3351.7407299060915,16475.70021830719,1710.8987331960109,1336.4248709915855,292.2677957765533,2231.5600800125217,3373.872842509512,16268.371283412667,1721.8746633752385,1332.087915184212,307.24799692412455,2275.981352812507,3415.6321003636585,16383.2445920092,1726.3266290380295,1328.856881487733,322.0856051681693,2293.7972875482214,3442.304432818047,16254.71166563997,1714.1193807090199,1337.7711375816732,279.2792854120901,2427.7939746514103,3154.613213940801,16329.693217717793,1727.2943141715275,1327.2383649220048,285.10337282540087,2161.9932521794944,3278.0541879616194,16440.67191200458,1713.6809188673392,1330.3618321637753,294.99057831447806,2260.9186526365656,3376.73571495225,16445.30200960158,1731.1727855071288,1321.0139521512742,305.23179780577294,2400.844948515376,3408.3189422414325,16460.35900417894,1718.842312143587,1347.6550922977247,287.7253827845378,2435.4178459246655,3192.0566012153968,16294.961944219867,1702.782900120648,1334.5913339801257,303.7828764418919,2164.3571906630045,3321.194930222304,16517.608508719237,1716.745198172024,1332.9827431187844,304.3868952201187,2370.514273880298,3242.3054186608992,16423.8980318163,1724.0608083086265,1353.214036633764,308.89354897607956
2272.0,3332.0,16492.0,1772.0,1358.0,277.0,1996.386994542927,3336.542659920218,16549.433209617317,1761.4606312104127,1363.4206055959341,281.78741717485923,2390.2501848236443,3277.890571453276,16490.82973089138,1761.0930141792924,1349.739811196696,278.97498403238325,2457.9782724941424,3331.0576717115528,16419.328142559243,1758.050624670409,1364.4292238382181,279.39630595952997,2419.959829034227,3268.3861340851904,16565.3336595029,1753.9344655052023,1345.4649111083768,283.1182636928375,2364.369894708365,3431.8575107682523,16394.93663355549,1779.6967714642833,1367.9107551742393,289.86760004911355,2333.626943318708,3502.1394403737995,16556.144715114115,1761.5399996556762,1351.2907099712443,280.7953508553004,2269.3794874821974,3257.92952990091,16542.58462405991,1784.1483563821694,1357.6306301611453,255.34626084333362,2137.082459181219,3289.310831052793,16435.12174119093,1775.537375791215,1341.2995246088658,286.41542361774833,2270.399327426237,3269.9855664102392,16691.64645816523,1782.728735362148,1365.6707049581992,287.1649018463814,2253.2741814705096,3263.452162846961,16417.382261843144,1771.7904750166504,1352.7271948502528,250.4102493351463,2291.965170888086,3179.8358955301696,16518.573909783627,1776.6547451246543,1353.9701032338178,284.5164452338228
2320.0,3328.0,16380.0,1747.0,1411.0,277.0,2286.6395454020703,3411.476568606392,16392.778395179223,1758.0183210055982,1429.4376539238542,285.29572205201185,2180.2383644705824,3205.871072266259,16310.383622379732,1748.077763881515,1400.8060561044147,275.1237320577067,2317.428160606599,3194.3012214504297,16498.997795974734,1747.2014237339663,1415.8961602923198,264.2316546102837,2402.595861560666,3179.5268176781415,16480.88470482209,1742.0881138821937,1410.7479736774283,277.9350544435338,2278.3073971361932,3430.9476880505695,16243.337951702708,1748.9050290398245,1398.495982032711,266.5270456891392,2462.1196639844766,3136.4409078741246,16346.125890397676,1743.7212613396875,1401.724666683592,276.4689919031048,2223.8122911789096,3271.341953562214,16352.71886590102,1767.193168304838,1395.3581370792676,287.14851744760676,2293.989205992233,3631.8212019044577,16478.636051280522,1762.6142792714284,1408.639975649503,295.7413975131375,2210.365210927269,3206.0797689894343,16367.941109091906,1749.0781614161533,1417.0042852892943,286.6007320617524,2373.9215189635834,3278.3240638614166,16308.289476639482,1740.099830151979,1414.9595498753467,277.15664959204105,2383.7341396799156,3400.0023974367828,16349.62988128317,1748.5422281671206,1400.7579976166214,280.7004867896736
2260.0,3336.0,16476.0,1770.0,1393.0,304.0,2274.8886377732074,3279.394310112878,16550.058200100953,1768.9220843529233,1390.653125263508,302.33676699119883,2238.2514390873057,3219.6452805449167,16489.469570990826,1780.5421249323706,1398.2063977716061,304.11418774462106,2093.208826559683,3301.790285807526,16384.852427190955,1777.4614994686144,1383.5925401716966,297.6690011440126,2292.9732416207908,3232.3553565506454,16621.234685896106,1765.937135412152,1401.118520316141,300.67482701183116,2491.1594999555673,3375.878520289958,16468.33757218547,1753.9399071439416,1398.2055332249079,310.3070089358074,2213.832748905632,3236.8992929510327,16575.38821309119,1775.2414115960848,1391.7300885154737,294.0015746943073,2147.5065307619657,3246.1926451878053,16370.486757493596,1776.3265926984907,1391.7700853758208,299.73402635961764,2343.049537109888,3335.021269863788,16723.170137857363,1754.6436006945755,1388.227836439066,302.7892212413928,2191.784287211759,3243.443001981891,16661.46905364138,1766.0100108234053,1399.02568964971,302.16518810805655,2071.8539020912094,3527.632271145288,16308.625326543368,1781.9420105031309,1392.1852674905995,307.02367179988346,2352.1154775167724,3333.8377229804087,16345.754063007693,1762.2881693789122,1381.1012689725305,315.61114484869375
4528.0,3704.0,15700.0,2878.0,1355.0,-1499.0,4518.057926769017,3671.0979141525595,15650.491934465397,2866.793247210619,1362.052029694015,-1492.014704725338,4590.573301808473,3647.1617652032273,15655.702850849928,2877.8642537036235,1351.6422774541938,-1504.4002692492268,4612.5688565265855,3850.698470525446,15718.08966882561,2876.708892773753,1345.8738384471735,-1501.4612278874636,4581.989233617112,3950.682674877427,15560.372825037242,2883.76295375309,1352.5780384717839,-1510.6727346675893,4533.354816027802,3610.2839917274123,15554.977445745959,2868.052393704831,1350.431549043954,-1507.9265853407073,4538.370317866434,3613.215872611099,15707.505968407571,2873.5106789119664,1358.7986593434848,-1513.9609993800561,4423.980409564124,3716.871161795137,15824.722878681287,2868.07040131202,1373.9320737788748,-1507.6683071526938,4384.915923077392,3576.244564352393,15773.218017947027,2881.488524772465,1353.4706816214912,-1503.8592570703158,4627.278507527774,3627.0699379256416,15551.401476559746,2878.1863520644833,1354.6170985406534,-1512.9139750890786,4519.901905665882,3710.7899453333866,15587.3287334073,2883.829775895128,1334.0464800789277,-1513.172275196702,4527.944264656952,3654.3381691471773,15680.940083976946,2862.372860346205,1348.0744181193827,-1506.0103178058373
-1608.0,5928.0,18048.0,-4567.0,3.0,1152.0,-1652.0212499212341,5829.810571597066,18137.63208796711,-4573.450147078509,-9.314614506069233,1143.855335645636,-1448.4112329509974,6014.137572914498,18025.82837745198,-4566.372889590464,24.771212672003344,1148.3472605728587,-1638.0348768529993,5739.816363208301,18156.669924774782,-4572.402387324948,1.809730146491994,1161.2249564029437,-1563.7805927572992,5891.146026639628,18228.058866042695,-4578.559371281934,0.4759249424575751,1162.9050134033275,-1568.102693677484,5862.685747383269,18075.350569804265,-4581.178959398335,16.143216201222288,1154.6459622903121,-1542.5243089533217,6119.910697901051,17951.73560275766,-4574.395039375194,5.603432951875697,1152.5080117615646,-1496.4023918224104,6080.720771431169,18167.03555432507,-4570.382257369663,-11.959233421083733,1149.3323523226886,-1597.591017655075,6017.141842500975,18143.010448398836,-4566.438354072728,-5.776237598458383,1149.0601237074206,-1763.7802793124229,5865.1919435118,18225.447267526946,-4552.0635609478395,-1.9465854615634273,1148.4278233677258,-1679.5631323932528,5772.084883420086,17952.80034583932,-4562.903228950058,10.141201705264663,1168.4035337157943,-1544.0311777771044,5878.061727778557,18019.9460580233,-4561.145456300657,-4.800319238083983,1157.5095623065654
6652.0,3992.0,18680.0,-3653.0,747.0,7823.0,6756.459167159707,3863.8508858597206,18592.441988085066,-3641.031937094437,761.6101500303181,7818.1643291250775,6566.880855454041,3926.3534028143326,18762.667122433195,-3645.889732501205,752.4282868047457,7835.133946932842,6652.7501004389105,4097.31144099836,18738.482881548935,-3666.16296517485,763.6784903163834,7817.678375305172,6745.296664216919,4163.6388825341055,18727.053064648484,-3640.01618519665,761.1184715243087,7835.720790338548,6699.906156240477,4078.682840573666,18837.581563032858,-3657.761979746651,747.5420482589756,7827.7582533394325,6564.335810969113,3961.648224195816,18713.668719229572,-3630.173476662566,753.2161553009157,7832.708323773573,6677.475842009055,3960.8303278573812,18686.257849508365,-3650.437460378309,753.9200150997088,7814.960016726272,6772.6553518815535,4184.118241351864,18543.15940855214,-3656.534181747429,742.3449335916448,7811.139789538558,6544.000013762906,4042.9204210784847,18746.596704563955,-3644.753190232094,735.1142492410651,7825.417077103985,6676.037767679597,4021.1420678982436,18809.126270002565,-3659.6430469525644,734.3844361831677,7827.700593470554,6622.287954494381,3998.007128673879,18612.985600698186,-3666.439508618568,742.1730905791679,7827.810089128664
1824.0,7852.0,9744.0,-1612.0,-1300.0,9325.0,1804.4506358596213,7956.529977365004,9702.69664278046,-1622.2029637525452,-1303.071608571219,9309.963112459025,1866.7095811389677,7833.029441085243,9898.658674115257,-1604.041747931152,-1293.388970202867,9318.81532463994,1703.4444967434317,7898.6881994955,9711.954983480957,-1615.4959938019936,-1292.1372297747087,9330.410774822407,1693.8705884552755,7814.201290398564,9568.350686380794,-1611.3877715593178,-1281.9718177664433,9315.205426169548,1908.7267689497996,7914.511578578955,9737.521917852891,-1622.1443087085668,-1304.5744735678568,9328.189570541637,1586.42441356221,7722.650773405276,9827.941924431732,-1613.9081899854011,-1297.0700792362616,9313.158017345611,1638.4629679076033,7883.984878178217,9740.023803617889,-1611.347845502333,-1316.7749569335951,9327.340672339615,1967.2414007181687,8028.512973353778,9800.390642765104,-1623.5616947589067,-1301.214943227132,9324.66779613523,1833.730800141257,7900.112422910194,9786.410267546022,-1628.09417874921,-1296.3019919304413,9332.955720336558,1887.8367999257803,7955.165111863313,9784.760477013679,-1613.2386011786025,-1299.4929106351512,9322.61496994088,1844.8715463322894,7934.663718918097,9669.284141530286,-1623.1678679237152,-1293.2649959378898,9330.174974288839
-188.0,6468.0,14708.0,155.0,-1275.0,9308.0,-235.1333267008597,6332.571688627278,14741.632427572482,162.92027574719123,-1272.2619453870675,9318.478727341646,43.2446127298513,6416.161680900349,14621.164826603404,149.06751778977574,-1256.1548836351412,9290.483193839904,-259.1011113471643,6484.051515157741,14969.008074800036,139.49042934021242,-1286.9180066105275,9321.987731023662,-268.7084902257126,6429.452979177588,14543.840931119978,173.0514569387762,-1278.5602175519473,9306.874286560816,-320.6808821474625,6347.082550678568,14670.618314195412,174.30154704992398,-1278.3984520609536,9304.631520613842,-376.1900443996955,6512.59167522084,14839.5612841937,139.7642153386401,-1287.388803256335,9310.411222416142,-266.57014518455037,6673.256840209835,14718.850743321882,154.65142419685733,-1302.7402028515658,9312.140943290802,-7.052008438975776,6492.687816749936,14822.050371089596,156.18643498668825,-1283.4436862862824,9306.363709596239,-245.0517971094623,6428.441335221359,14743.408202820621,166.92801021066842,-1277.9505842600738,9305.04776469287,-339.52873279551613,6505.080915322045,14761.951596560233,161.4179049139811,-1268.667364427095,9304.765719785684,-119.04303115389364,6507.605796751623,14849.364196289194,160.31871543807966,-1285.6838417752745,9320.92897198911
2784.0,-2784.0,15460.0,5966.0,-1427.0,8161.0,2778.746822833074,-2888.015192046195,15572.681415255009,5957.38612894524,-1414.7100683215212,8147.542492654162,2968.8806767426054,-2808.6436746227323,15573.463154496909,5967.45116239601,-1426.2187193010625,8153.934335974746,2681.1336233385673,-2836.5463409569024,15373.269998340409,5950.300377326301,-1425.6350920945256,8170.631965927943,2702.861099756612,-2863.466301791201,15455.089799431027,5963.390699180521,-1429.7574785630195,8174.345256312816,2685.933454815506,-2864.2665642264515,15469.069347018089,5946.46776855186,-1433.5204450626711,8162.649255907307,2825.5742388921144,-2760.7111430385007,15598.91911188442,5963.290089000643,-1415.998976548976,8175.859574533813,2555.2373327961222,-2945.5264991560703,15450.134243735023,5960.792908056663,-1417.7710782046345,8161.725788312707,2743.921181356257,-2751.851308422156,15480.665708818917,5967.1392031358,-1427.7105861214732,8154.310836926509,2920.9212309875907,-2813.4581763291535,15457.644648641779,5953.679321619235,-1396.338485088593,8160.138060959426,2805.777025653217,-2699.8326300380977,15329.343594447446,5960.166538922148,-1406.8761687709814,8144.540143531515,2890.2425805793,-2723.164140281729,15504.850350102868,5960.0879695166095,-1409.109614268563,8150.680814881021
-688.0,-1576.0,19112.0,-540.0,420.0,7432.0,-685.6317959182633,-1503.7187887812756,19070.111204109948,-533.204596890324,427.4261183867287,7428.055516496492,-734.4830928231177,-1618.0236182054473,18800.47916482558,-537.7402050346453,421.0320423895309,7418.100285982804,-858.4854929542511,-1744.581947004158,19313.820656456537,-550.3679501869206,435.0131600948381,7433.263159088185,-953.2325849609919,-1534.6050615907282,18965.56299489355,-550.794110357966,417.7483582986086,7428.445932965242,-822.7625531009721,-1730.2692769935709,19084.076943873904,-526.1194916728679,418.387544555594,7431.805510609507,-521.8035531923967,-1419.4018050395057,19222.784742261745,-549.7988495463304,421.2445091611732,7435.1280443458145,-638.3553747040935,-1530.1833917224574,19231.07309268906,-547.87329364908,426.8373279446245,7426.52081999755,-564.7495808353585,-1526.745401508277,19343.627032850858,-551.8206255513392,406.89001213119445,7430.0542191874965,-689.7419550727715,-1544.4246112227909,18961.62118601157,-545.8157502649806,409.61021535428733,7427.302435779065,-748.6632703424234,-1486.8313329760917,19067.481174343477,-539.526109235246,416.5432334068054,7425.417469302602,-739.8821325876917,-1409.5530114541457,19251.041116666536,-542.0874653486198,408.27461320380513,7422.7472141457965
4804.0,-2744.0,15160.0,-212.0,2232.0,2319.0,4816.21164024274,-2726.8314446289683,15176.109248110277,-219.18198571895013,2229.9437755850727,2316.3665434814047,4789.098280306123,-2802.039994549978,15175.35170096796,-218.07806407699803,2236.3961093775692,2322.4930766987204,4756.27780195588,-2674.121432189599,14998.498041013823,-219.16895250852363,2220.128936603696,2329.4382644938746,4762.044236212063,-2818.8442645275136,15141.997640382646,-212.31457895131985,2229.520476565577,2309.6905565119405,4734.3789154132555,-2647.6244884733956,15099.234328434797,-194.5151067948435,2225.5820847070477,2327.665617754932,4780.662100380534,-2783.1131619756297,15129.379827021252,-228.19405990979627,2246.9620278593243,2308.175126381817,4797.239198438247,-2806.622172618013,15129.224528456129,-209.75144830456426,2219.109601232791,2313.3527809529874,4827.752955799192,-2752.955978590326,15184.460175722716,-201.78098634226842,2239.664708039259,2325.459695030602,4640.44858238284,-2808.7630732472185,14968.857924241294,-217.27094240292084,2212.8076934776213,2332.121952619196,4864.592865874444,-2726.6201003297874,15162.342392034,-216.1060327047991,2228.603969495103,2310.603489064111,4619.659485151924,-2697.95810046697,15083.805374205142,-197.13162401005712,2248.857211273319,2324.150770614392
3052.0,2636.0,16340.0,1646.0,1752.0,383.0,3096.8883395677776,2642.8732709040337,16385.30295372883,1650.0130524167482,1761.5205950956613,372.5159334199243,3000.564885635862,2622.64762940097,16205.437224845971,1647.4615131223236,1737.1763007411507,377.4289867791479,2925.976469764955,2728.8312937771375,16440.085448094054,1651.1221079921688,1753.0428382262448,378.0403841032262,3199.4784899463193,2601.167469556069,16372.800452928133,1666.2274026438356,1760.9920243206725,381.5623488352279,3198.236708844602,2629.812485751988,16273.168925249936,1652.0159172992867,1742.3647028791331,383.46648473312905,3180.4313329864967,2770.3429214294765,16335.623374438179,1652.1244143115719,1743.606879377739,405.11417036991986,3134.0140982343223,2699.2204469809385,16267.050659764633,1642.4458832021423,1755.0568439105282,395.4680571944067,3134.6242332582524,2583.7354822575703,16356.723843227795,1670.7910515988276,1744.672432922829,371.53057313802776,2970.5062133559372,2658.421800800847,16333.62187788812,1653.7488766139531,1770.2303382546984,377.30822115060255,3145.2839435384667,2608.9812949651496,16302.59279086244,1657.1455784287082,1752.099779272358,381.3115356570189,3238.0433890179647,2475.883606657056,16203.16193028101,1642.7114089396428,1737.6799765873566,394.89231628254305
2920.0,2132.0,15024.0,5210.0,3117.0,317.0,2971.5122632643365,2107.770874126449,14819.070607692782,5219.122381058079,3118.34031771144,299.44738331075956,2862.1556971234313,2133.1781421755995,15107.621543242756,5210.33886921654,3127.342807621057,316.3571667103281,2999.022334966863,2086.8242167639637,15006.933276648064,5216.741645734693,3112.857187245561,328.66312430483634,2960.900835566124,2095.7646199682194,14950.140801816522,5206.312463355855,3113.275471676087,320.60538373220476,2888.363320219788,2269.6351326683484,14945.119411767457,5213.648399697768,3117.298160601168,332.0386585847161,2888.8828250261627,2252.1600420155523,15176.047185724326,5195.3868886948285,3124.3770954560982,316.6146858985278,2923.4682033575587,2199.5275848497768,14958.863948609947,5222.441111872753,3121.8266167510706,304.969123864383,2880.9686898202035,2115.469201619582,14939.45040617493,5222.46715774637,3114.408202036118,323.5436583681901,2951.400436954697,1945.7302916135545,15049.18214015125,5206.5414359745155,3108.477142859479,308.3352161639982,3025.8288529100637,2069.400658757438,15112.069445109688,5203.7139134864765,3103.7857405599148,322.1425728705981,2733.094075134705,2213.512300489058,15103.554299687969,5204.472767085248,3112.119076210055,324.01603502127125
1592.0,-2812.0,15656.0,4143.0,1804.0,2300.0,1731.035506060706,-2912.549812340581,15763.115338721282,4138.174097632501,1812.8788342641933,2302.615985329986,1561.61451884461,-2777.686659313216,15717.581397565049,4129.771838676344,1800.3475667245134,2303.1185949807927,1635.9536407925805,-2702.800802247765,15821.551724804014,4157.488994537894,1794.3661953483072,2304.684021433594,1630.7119189005107,-2676.5063008970337,15600.730659217643,4154.976784071263,1808.8049475972566,2301.631527283659,1498.2722151954395,-2713.944974922142,15475.81188923173,4161.075278246937,1816.6655442151794,2304.9309634641345,1552.7405192833123,-2679.6887104290217,15695.717266096166,4162.869236744788,1795.7660507801297,2305.405814434893,1472.230108865248,-2729.6301063572646,15579.212510773219,4138.17378606377,1802.2782191994584,2297.5942052710247,1525.9467253516025,-2779.6024684125628,15609.028361583678,4151.83607888577,1809.1868954582694,2308.065857019588,1538.5027941577955,-2750.0863067884516,15488.069935431047,4150.258058909847,1800.8555407646468,2306.048713493819,1409.503295366422,-3032.3276308714258,15705.28903879113,4117.223937767561,1798.6665857463738,2300.7344897346043,1598.888033982411,-2751.9588479351864,15618.910523532302,4133.170757252702,1811.663688898354,2308.170299334841
260.0,2528.0,17252.0,4750.0,4115.0,-2069.0,320.61253674181546,2474.3583837061774,17331.691191664344,4758.783861483541,4120.916346477929,-2072.2078107258217,379.36045302183186,2517.196920794061,17152.130887037358,4760.298447390656,4097.378562689264,-2067.468021407991,263.0767706701846,2544.429462922725,17345.691108021972,4741.523959708212,4122.186458115303,-2071.952505126004,221.16300141417582,2618.461076606208,17235.287626962505,4750.248892878036,4100.711304106409,-2061.885099617372,329.48680155602074,2532.929019180455,17153.933406268665,4732.87230764592,4101.454827840329,-2065.1744707177836,322.354633986674,2596.0406209584357,17247.16684026183,4757.81922811003,4110.34824602201,-2059.26289311869,395.39560568483967,2373.706076035374,17171.82398529812,4768.703998375904,4095.913827577397,-2074.938080715049,269.34363900854123,2414.5355674351185,17182.55272665714,4763.191260868442,4120.128467763104,-2068.935607984924,100.92340597681365,2530.9127226853116,17328.59865725865,4761.821367718875,4117.858207454566,-2061.8888630889555,185.89859582821566,2530.284491211859,17250.65224054639,4751.682563331907,4126.129310676875,-2075.8834056208316,147.7757381249693,2485.917225709675,17279.934003397735,4730.253474576768,4094.0774470235624,-2072.2766060021927
1216.0,2752.0,18784.0,-3477.0,1320.0,-4013.0,1052.1053395359172,2703.9749731740562,18587.085705496756,-3488.048761631676,1309.1129441171213,-4005.4738141715857,1132.4516033449,2605.4945187334424,18770.395449161846,-3478.8540391535585,1318.7182936721101,-4025.4346324145185,994.9758191858361,2655.6469024209873,18763.561795269346,-3467.2458445930656,1316.360475530303,-4002.7477904449515,1320.1440325222384,2941.389821505842,18759.664170767497,-3467.312966523726,1320.7894144583477,-3996.701043568964,1205.0956353771314,2617.391480228867,18684.193185982745,-3481.3092950744267,1305.416269709818,-4014.654621147166,1308.5238166027518,2710.144343414479,18712.33074195925,-3462.1082443274113,1316.1163169261376,-4014.5234477371923,1433.139889022158,2573.120651252515,18836.894799141264,-3488.60794698217,1331.7237913432205,-4020.4504387648026,1174.7671512394465,2857.7425338140933,18707.244556178553,-3466.8956115337955,1329.157552311573,-4023.6606592957864,1260.4510440731274,2834.785532442301,18910.302388235745,-3492.9214925913425,1325.1391995792249,-4021.9677508300733,1171.8229076614402,2742.0634275454504,18798.701617703275,-3463.7079154546695,1331.7754738676742,-4012.2747457240275,1173.6010929323106,2882.1700094054113,18769.15053657389,-3474.0632636379623,1320.533307535084,-4014.6036965784806
-412.0,-1364.0,21952.0,-2554.0,2833.0,-8181.0,-392.1882085444962,-1410.9152100216004,21936.18248430984,-2543.8016084645783,2830.59791753651,-8179.107595268558,-570.3992157388136,-1457.1138942262407,21925.09930108553,-2573.2334761528705,2822.187619045675,-8178.490199320848,-381.1018603834063,-1317.7691079227955,21902.699336532543,-2554.0842971140087,2844.8364633504275,-8173.934155948629,-194.10731810506383,-1393.0901913484054,21878.534277666797,-2556.6887519893826,2841.4105382261937,-8194.893794577616,-293.0083702568725,-1579.1468631936116,22010.783098734504,-2562.6712399204903,2837.0691416737227,-8175.263912163571,-435.6307699552925,-1452.6911712913627,21906.197097959353,-2547.8278436989654,2843.156650490286,-8200.151636054741,-337.0755400118071,-1440.1357229775647,21815.47231601829,-2556.635884885849,2839.37252205829,-8179.843395609295,-502.3898344645927,-1433.3017511896223,21819.488623740104,-2542.018133315298,2819.378140816049,-8189.675360270583,-346.88935172485526,-1516.6818346262978,21987.678516927626,-2550.0522439416895,2832.83737430756,-8174.918546980554,-381.6955322364337,-1237.9027381815413,22050.829646705908,-2541.5977523418674,2842.0185811198953,-8181.128350791406,-465.49010314719493,-1279.452367997443,22124.679641169645,-2558.975843802298,2834.480300501208,-8167.595013776601
2544.0,4316.0,15832.0,-5774.0,1704.0,-9835.0,2564.5094930383034,4198.765861232942,15850.345439250625,-5773.133071093911,1709.6021038687356,-9837.774125624846,2503.7769660896106,4458.167782700757,15880.937295906275,-5771.296699333555,1706.942195165483,-9833.103302234204,2582.7342880026767,4345.367026929558,15831.242003968067,-5765.325743782243,1711.6710743573014,-9817.948410682624,2618.920131315105,4275.80367863181,15960.450229842128,-5769.046556359835,1695.7591766738067,-9848.010833183498,2452.8392780945783,4267.125229172191,15862.53813442101,-5793.595687855349,1699.917412572105,-9824.942530596714,2722.057929831645,4321.327735659549,15935.470477547922,-5782.148486037555,1693.3857003420146,-9828.951571880832,2593.727358973369,4406.847773427915,15725.780876785331,-5767.5060051813525,1705.0873659801953,-9838.556886964825,2371.1277842949,4325.152345744746,15814.08030404086,-5778.848766121248,1711.4885018135217,-9827.825300439614,2492.555377657107,4284.857234232006,15825.501355909506,-5786.57415430684,1705.2219138255477,-9843.764624627374,2482.700949266645,4198.384079626059,15778.723446218006,-5765.576567700244,1706.832082731475,-9832.348896368927,2590.251322122311,4378.664427999348,15855.319993999445,-5794.715226550727,1717.9477957337788,-9810.208454133319
-4012.0,5140.0,32767.0,7173.0,309.0,-10549.0,-3997.3875899039695,5082.127073377938,32840.361640241164,7163.344470569888,302.4233432806361,-10545.500688100008,-4083.660476071704,5230.229751386948,32880.28514810199,7174.729777712981,310.9163443839381,-10549.032401929491,-4131.6364376343845,5049.48335551239,32812.44713227113,7181.194994359345,311.66862454181967,-10551.220359541396,-4055.2007763581305,5194.275217086702,32795.46964232718,7175.070449089899,312.87360335362195,-10530.380520201606,-4086.33386115565,4951.108472112787,32817.782674705304,7182.077036598373,307.00659833275813,-10543.005409416915,-4118.681064911332,5216.070984904775,32837.152287020814,7182.575168665087,306.5504927759313,-10542.531317740466,-3908.8270253577884,5058.925022387893,32834.72901488658,7163.614148953062,315.5463605995021,-10546.216797447656,-4171.959058273023,5071.017819199784,32859.32739835783,7173.048412588949,314.7670997820941,-10527.058169624484,-4001.754616150998,5210.911359678182,32954.96884438072,7175.422201761285,306.31664768414583,-10536.242694884979,-3940.1679770918745,5074.260503132572,32721.20281618741,7168.917927010239,310.66531056991596,-10555.16648672076,-4005.6577407877144,5265.004342829179,32704.322490243056,7180.918627077644,328.5818936347447,-10536.705179581906
3784.0,6312.0,5796.0,-8914.0,-1143.0,4379.0,3640.1270658222475,6231.814484063622,5741.300195405835,-8884.565686018243,-1140.146793215154,4371.956350513801,3595.9714344287986,6389.697183525685,5668.230596164537,-8898.794672670514,-1127.7916302163835,4360.687644615746,3882.5496126438975,6245.202511339188,5698.867399085019,-8898.697405635294,-1130.0904508472408,4387.464833852043,3869.899281195112,6278.595179810049,5790.791456715678,-8914.457604821915,-1132.9252436399047,4360.841469869765,3779.421736172162,6280.047702473215,5790.471213597246,-8904.778402919452,-1149.6332342273336,4393.061344809945,3698.1093931360692,6441.992684317244,5550.8248862423425,-8903.203997846467,-1157.066895018385,4378.662550777654,3666.771777357362,6219.970328205766,5782.482421706937,-8924.258095848782,-1142.3576829076756,4378.941653359492,3862.6602242654844,6130.11005200661,5774.560251013538,-8917.26084229527,-1155.1006648429764,4389.729348162302,3804.0473676070587,6259.528495482491,5781.771645683527,-8918.287881852691,-1132.72893417829,4381.025952861758,3719.3034333047544,6155.910398177021,5927.449101979464,-8906.920612150383,-1140.9680333551719,4380.571249049352,3750.4700196300423,6311.292189752067,5723.47063398846,-8920.413158836927,-1133.9184085737613,4398.180426682331
776.0,1020.0,32767.0,10542.0,1054.0,2747.0,857.6775808162809,968.1230253496046,32945.91277464379,10543.731846514163,1044.1684025555815,2759.3344242200073,715.3045468091656,1069.8531162308045,32804.87329053542,10522.375296435554,1071.0208337671727,2746.2641455788894,659.0906047561228,1038.6190358602291,32732.66840107306,10540.737939302462,1066.7570188963944,2752.0183548007913,798.1764325578456,1025.6703551927335,32799.20243838609,10567.276225184376,1071.3580919954175,2745.3783320273,726.0128303007567,1047.5520505048241,32758.652226404156,10540.155167232893,1041.6519741898912,2738.2305268660593,784.5825706754011,1040.7839277620926,32924.27221751372,10548.274385528728,1052.7043241324343,2735.844188067336,650.9650457558105,835.2795501709902,32660.727046861157,10550.287794423646,1061.4615424270905,2753.4394157166716,830.2853567161462,1109.7777237353835,32813.04422660842,10548.956750764395,1058.4071294256814,2759.3198492559395,839.0904349016944,856.9769370311876,32651.163141789424,10551.343620954009,1044.791136380863,2749.662517206684,859.8414541473275,997.4234893708688,32829.04345949695,10546.131559677306,1060.7330813948904,2744.062142457796,699.1892759936961,1018.3971868031354,32894.30067882664,10540.404200336616,1039.7253684888715,2732.0603580135444
4856.0,1612.0,18316.0,10596.0,1603.0,5723.0,5002.679855342233,1582.55129551741,18414.18446900067,10578.691532767043,1581.343283286737,5717.849756795471,5013.198398902928,1553.231731629182,18291.951837227523,10605.738625333064,1599.2726028605043,5725.794822450651,4722.200022722755,1766.414714175024,18298.68122247443,10584.639019527203,1621.7609742889645,5729.604473977651,4818.389161446738,1459.5460915472327,18222.637835767073,10608.71275327688,1605.3214176488734,5715.543781105901,4975.668297272218,1510.4531300262133,18244.925699941847,10602.238699252981,1598.817287263247,5720.377340857501,4923.5655494778475,1523.9625086539431,18304.739481338172,10593.821570831453,1589.4316610686021,5721.059710516975,4944.638895099333,1630.7545364759837,18383.841624322307,10589.315704068564,1591.8376676880523,5726.13522294853,4740.903092054787,1496.1160651476353,18297.31903482028,10590.29581930331,1598.7907662001842,5724.232783836745,4921.422354529237,1713.0678814798625,18206.254947082634,10600.395734442933,1612.7037633731588,5711.9406721968235,4785.239413637583,1508.8351379213527,18256.509338935568,10601.676230618423,1604.3714918742294,5724.215472947125,4867.085187269419,1610.6693425335725,18224.336173102103,10601.23937255176,1585.6769734710654,5736.176912077451
-124.0,3152.0,15960.0,6722.0,-361.0,2358.0,-165.71594740266568,3110.472500425683,15905.165414127303,6737.9166818850845,-366.12398146313694,2355.123941415995,-176.1261313598106,2948.684084041076,16049.4790639406,6713.390168332615,-358.0047945779525,2348.741746575774,72.60214137194444,3137.429326662101,16067.724362854593,6708.345107606916,-340.39834174015255,2366.5696344325643,-228.4559476550584,3113.2408279571187,15940.588525288198,6735.323935511396,-352.0428625101479,2361.4031053382064,-152.18661793577579,3130.9050849111,16010.687472978929,6724.07430500137,-360.78445154163234,2363.6939782251093,-175.3418700577238,2985.259704169959,15978.742030472691,6704.424666849664,-357.8780678518445,2354.1414072524203,-151.48405499991458,3202.00119517845,15916.679497172472,6721.388409398765,-355.2801305797085,2363.2150309526,-233.81028664662298,3224.391575595849,15906.413230420012,6721.663141907074,-377.55491528777185,2356.600130509779,-128.1848819624421,3181.6480018188186,15998.254556653628,6726.0181914542145,-364.91994644565943,2350.204702637728,-245.38237074860885,3046.936665857385,15850.335259748212,6724.98472609569,-351.26108485721016,2333.2190081922067,-242.61211354294988,3247.742771305064,15776.046185380312,6719.444508287173,-359.718329998668,2358.5154051884433
-1512.0,8916.0,13688.0,466.0,-587.0,3480.0,-1453.4323342360492,8995.31802000077,13790.484809479049,479.3377821391989,-591.0240117273622,3490.771952645907,-1560.535953580488,9078.467335326355,13611.310769737174,443.4366599255813,-582.7575597533063,3476.330273855649,-1524.1004334940264,8894.356643947525,13794.743893180217,475.796383932649,-573.0983073304114,3495.5036136512695,-1479.2068637245125,9041.170097256838,13715.121800293402,471.40973224883555,-609.9251753688521,3473.6320206974196,-1490.5597272747202,8873.70390418535,13633.000136054237,457.90909552698633,-576.4101579878385,3475.5965511244913,-1580.1417348709801,8959.43654700717,13707.9462305689,469.62998630704885,-569.3963965805564,3478.1598613768356,-1677.342272746826,8800.178197690822,13696.722531901607,471.6786925326634,-581.3655670211847,3479.6189836767903,-1491.5491939173123,8799.295562016088,13694.236676834389,472.4717270275955,-590.8391254851482,3470.6772906299047,-1588.408653464315,8891.322375811595,13602.729590942345,473.1509398394362,-576.872056399897,3485.8478297855213,-1548.3067935855577,8983.656006821147,13711.11963609533,471.5261698421611,-575.0989950710127,3482.3829647998446,-1505.3868276306487,9045.828992600438,13683.078763995965,466.01514821792415,-579.1212803193506,3480.605951048062
2692.0,9552.0,13284.0,-15397.0,1109.0,1501.0,2820.0990376269124,9571.308261157052,13265.076065182488,-15401.326633044424,1106.020670592101,1496.700522361603,2660.153680752227,9449.880115728256,13230.610266711297,-15396.513359063923,1101.7554569951185,1490.876016510108,2538.034910753317,9518.663638653696,13327.36078265171,-15393.38605212123,1095.9788037151884,1495.3583480833984,2738.6916092283122,9574.1059442489,13365.139420855661,-15395.10906247173,1105.6294690507923,1509.862916896685,2758.7424912892066,9579.809783784687,13245.211755579263,-15379.800133078348,1106.5421052565248,1500.8111504404078,2601.6223327191915,9562.44101127904,13318.517875403133,-15385.411608833292,1120.5911554847664,1503.9005724052167,2713.9359275171014,9397.156098147008,13331.184587980673,-15391.455926331682,1112.5609545952211,1484.3916787879916,2634.9708692974887,9465.740849541735,13343.891829942233,-15388.130813536227,1105.054260116589,1506.5506738384734,2786.0856853966548,9648.81208500592,13191.957120229534,-15398.42234968924,1117.367984594267,1509.389993132922,2737.9500593015405,9524.565499680559,13257.05645878832,-15389.885583021874,1111.4616466887076,1502.9711312432892,2568.6700125122493,9561.826329174053,13116.115020445563,-15405.716255377516,1114.8408489824897,1500.3619917653616
-4124.0,-11004.0,29884.0,-9116.0,-2648.0,10005.0,-4097.756466129385,-10923.087957021253,29853.243348313277,-9107.241831637448,-2638.882504512694,10006.867929813447,-4104.556658006158,-11013.07363129072,29926.166338318242,-9119.206139042728,-2654.598277925042,10002.741707284446,-4184.6466256768235,-11099.579969663198,30009.07425528281,-9110.23684234695,-2646.6303156720287,10004.1277295702,-4173.583630926808,-11043.859807115823,29765.369514779013,-9114.676936329628,-2649.1165956002433,10007.950274702427,-4157.587768458962,-11173.085533972502,29760.26090899331,-9125.96414796589,-2635.236069884477,9990.898659465607,-4066.7829068941383,-10951.809357949687,29891.91208476396,-9109.468411856982,-2644.946349620361,9985.437938216242,-4216.749011799138,-11032.111136531534,29823.11183047901,-9110.784409442238,-2642.7302734604305,9984.731165501173,-3982.7681473526327,-10826.957879412823,29879.668074903944,-9114.828399838692,-2641.3543289129193,10013.592097721206,-4073.589359124274,-11046.542400565279,29880.427708337636,-9119.228318802647,-2653.658401418348,10016.697203163041,-4048.6803653564098,-10959.868907011578,29868.496014289285,-9109.61147098503,-2651.100717160871,10004.011478754357,-4191.394544054688,-11040.859841303449,30017.50985926124,-9117.975297659788,-2645.102837078362,10000.955519680887
3608.0,-2472.0,16332.0,4417.0,1866.0,5952.0,3634.12302731228,-2469.7549255641106,16283.781864566976,4420.017774727287,1861.6028345241775,5945.664131409272,3608.7000671060555,-2557.7523791826316,16364.576588320095,4411.561899243547,1858.129308329067,5952.286019526467,3493.207353365784,-2531.1904582366737,16378.190236313863,4417.185343701943,1867.2994895807165,5941.025236993476,3632.031297045844,-2432.1878670874903,16477.960820109747,4432.840308033329,1860.4527827704085,5966.245193294307,3594.643383155328,-2434.6245459180295,16439.352631475842,4425.037076192785,1867.5258881964037,5944.935624052981,3632.391504864602,-2479.9825080156156,16273.692773495377,4430.459309013086,1873.1604149741263,5959.520263429742,3454.4457218782222,-2363.009930016134,16518.95150809809,4424.856526172785,1855.369684369358,5954.260940454028,3770.549819841886,-2569.16890541576,16289.905466822172,4407.318805850192,1863.3709234602336,5939.02586196689,3483.5375173947323,-2437.5378999581403,16394.169838688544,4417.933821605905,1868.9227920112446,5949.089531891114,3430.050169091519,-2521.321652669731,16447.45286712492,4404.040858901496,1860.9554824732745,5967.44577113784,3737.5633063237656,-2423.1372678133466,16308.496493884342,4425.189326103502,1877.4104454645444,5953.270050526883
2100.0,-2408.0,14316.0,2251.0,1244.0,-253.0,1932.0494446198654,-2503.9831348714933,14214.53389359036,2268.4032534406915,1244.4135590724777,-238.454658561449,2177.996615895387,-2572.658687364781,14383.470351979488,2253.248808373396,1230.6047632894742,-264.8511577130354,2202.4550574201435,-2556.4312478257584,14306.445764015356,2244.281185438993,1233.4598629758977,-253.6551877404181,2116.1838816635504,-2259.289151395771,14249.408311467409,2257.102693353726,1244.8861228629037,-264.15312584099985,2045.5119994543602,-2472.0592418813503,14334.707186956004,2265.2021416772623,1229.2838605802306,-257.84759991718795,2097.377020542608,-2352.6308313756863,14358.187676946332,2252.388828631458,1251.0806345158737,-241.30556280909758,2222.1157904276292,-2330.7674219435044,14394.040164346925,2261.4029305898325,1233.1684546605761,-278.66956758186706,2122.4533326065803,-2368.1211501188736,14163.053393376957,2250.1693987127837,1262.878917931525,-232.00362604724654,2024.8975881609572,-2428.572292863559,14324.685098953025,2253.683154323707,1250.132970474044,-252.44156967201383,2069.0631823463636,-2485.28764438267,14356.248902088037,2251.0343146272025,1236.7608123951663,-264.43539389075784,2003.839564966594,-2406.299816096388,14201.937825968695,2261.820146204186,1267.5248177215403,-246.3586871767888
4404.0,-504.0,16568.0,4487.0,3013.0,-1448.0,4308.179322872798,-520.0991973780183,16554.50021868208,4496.263713544806,3019.1826814706396,-1461.0811513512097,4504.74205570927,-503.72250870179346,16417.480319306676,4488.327439296454,3016.8491817704808,-1456.4518798028316,4435.499870410207,-653.3632709824338,16493.56195895824,4500.026523826924,3015.6430438619923,-1443.6985053185488,4334.613377992147,-367.9945968600946,16666.42772509247,4478.010253104491,3005.782126802151,-1456.5191512575507,4311.2375962130545,-487.9852774850436,16629.46444867374,4492.242322319744,3040.7522137912556,-1474.7943965629825,4378.4628899493,-540.1633411842713,16750.200502039745,4486.059962661548,3013.4576115131376,-1436.2091959503587,4408.474777961297,-520.5940013495521,16460.641820706205,4490.670156788051,3021.22638012824,-1453.3044996299527,4190.981091691062,-577.934248492099,16646.716415194318,4476.4570656892365,3020.0816156829555,-1439.239576082416,4369.00262164899,-506.70293251269203,16545.36074468094,4492.859420650489,3016.365778624265,-1446.6797331652954,4512.760408037787,-356.52644265648075,16636.870752411538,4495.687494875412,3018.3419933568034,-1435.3465222826583,4286.6897345236275,-376.56090264719455,16630.83911396894,4517.010192761259,2995.8030854619965,-1438.2366638539536
2212.0,5164.0,15952.0,2357.0,1808.0,-1509.0,2359.4345081959295,5126.504298620563,15946.366336976611,2349.7704432538085,1804.272706995415,-1516.3469164545015,2153.899841801046,5126.885352908562,15999.027545600207,2361.599550518144,1796.8385190362958,-1514.420522874453,2239.8482051878586,5200.560182147206,15853.270979406305,2351.4341346741976,1811.3188772711571,-1528.5388854600446,2250.5775759686344,5087.841748115544,16062.2254093793,2349.7602095220855,1797.7143710260161,-1503.4826467528783,2142.7903905044823,5117.303844223389,15981.788941842367,2359.914627373647,1807.1086469472084,-1507.3680556483848,2193.720921792998,5109.643828758195,15885.667950068286,2355.676270820452,1805.1917337621803,-1509.9478934748763,2334.2876004568748,5370.657616253507,15814.950539547424,2354.2830597870266,1797.7481776527543,-1519.7430143882498,2162.682793178164,5153.3798877078525,15866.618559955754,2346.683021965321,1814.172722049108,-1524.347610543267,2002.5265755056155,5393.386317474505,16080.572941740498,2361.8347929031984,1820.364093842123,-1498.5646076581638,2269.9386239551472,5276.709299795678,16063.997312075962,2361.3710219245686,1819.2193654888724,-1497.306504383367,2151.9897643831255,5254.686826119417,16053.769734280739,2353.0336650681597,1797.937100363215,-1507.2969700121048
1920.0,-608.0,17828.0,-1490.0,534.0,-1287.0,1878.468264518778,-630.4301992264575,17965.90773921605,-1502.5668964334752,543.4214042527553,-1280.3806192529325,1738.6931126095683,-627.7769172715556,17926.166106472057,-1490.065832365245,538.2609487079802,-1278.7659041306986,2037.7436584143775,-662.906847216616,17795.354057957273,-1505.5032101245508,536.8023881554205,-1288.694000517419,1786.4596223334167,-474.81350695797454,17925.466046161826,-1484.4826341130452,554.37879166827,-1289.7870060997582,1716.1696314820936,-443.3616440768389,17747.94230063843,-1477.4690750147356,550.3148828746425,-1283.427586459991,1921.4236516873978,-628.8125570778814,17924.471838206788,-1486.07874589277,518.9529045189265,-1277.2614602752699,2038.916079218312,-558.5226188543788,17781.028074789167,-1497.2631417116004,521.6962155680878,-1273.8514053642386,1864.511530822513,-573.309682538664,17740.675696955703,-1492.9617523776237,552.2432853848385,-1299.7242155426216,1827.0715348866613,-679.1990922330976,17801.218878197717,-1490.5234184653923,530.6017587866462,-1284.34349828136,2033.9948365482928,-606.3691780957516,17829.72547938814,-1499.6614376450814,538.4696517511992,-1279.0263915394119,1896.8490756739677,-603.4387882007785,17752.47675506095,-1494.2895570420424,531.3386864685876,-1272.6567655003473
4836.0,-1012.0,10848.0,-2266.0,1353.0,183.0,4751.313174841032,-1072.5316341515886,10827.89952076123,-2273.2599472880506,1365.3263565756506,190.0050291171345,4957.940688615094,-957.4437918443547,10874.620841427586,-2280.3104908930063,1348.285706085477,171.5656905939152,4734.5233485250155,-1039.155339278173,10897.168415104412,-2267.330864022894,1370.4616168819196,184.79471467970862,4814.079896454031,-924.4811078519851,10738.513475874886,-2262.5234673635227,1344.2732766138765,173.70432125009108,4802.292109913881,-934.694674533571,10852.940665599453,-2256.9993888855856,1343.5631819410792,187.41343264555056,4867.9171331843745,-1066.439665275178,10803.95218118702,-2276.774601441948,1365.7276088815627,186.18219150083152,4811.390429887833,-1039.2711176723894,10981.698504597034,-2244.8812424250514,1338.6995176844318,193.68648846300485,4812.8313960226615,-1119.7285416414416,10794.598888083208,-2276.195052227604,1341.4807356543508,176.8318825645356,4813.656158428355,-1000.0289566460991,10783.744028220382,-2255.9830185222086,1343.8113015981355,173.82683032807446,4967.4675565101625,-902.7229618739314,10750.376258901908,-2257.182237910095,1360.6757251589638,201.71140835700578,4770.177823500862,-1084.498116716036,10797.876538429671,-2259.568334042695,1346.9197756293167,176.78936002137453
12900.0,-1840.0,3952.0,1810.0,5663.0,-2463.0,13083.019381771906,-1922.3843201572645,3977.53377833848,1804.6909854636338,5671.061684301804,-2463.283582129517,12751.407209171757,-1702.583363772665,3985.05769289596,1806.6170534981263,5670.533045236897,-2453.617476623028,12746.10889076536,-1831.0519509079916,3926.9950868842448,1799.6698176640136,5669.357077935339,-2479.2543693389766,12803.920117880369,-1740.7049530745742,3731.874496097553,1810.1359746426226,5676.52204478195,-2447.7937594455007,12764.433694393505,-1895.3002401183778,3998.9938414641088,1799.4243124372404,5660.41136701404,-2467.1351530805323,13017.973161550579,-1790.8191318242602,4094.3100083986587,1814.9533606375167,5665.0886948439065,-2457.5244417234017,12828.141685226048,-1776.0903999018064,3951.779883293808,1803.2459778386242,5662.61999940099,-2463.7204541383708,12855.893843575235,-1785.8944063879271,3969.058091307632,1806.1375301367273,5663.28992513502,-2459.267497847617,12946.604898234431,-2055.1966432695376,3783.3095114388693,1799.200506471576,5639.405612069263,-2467.185354961237,12815.174879336619,-1870.0003648102288,3814.3873627989565,1807.0565152606932,5663.571516265339,-2467.8023045843133,13002.9334928515,-1705.8781900600868,4127.220761736249,1804.671403135126,5669.603270730131,-2480.965062384953
-1644.0,16460.0,12700.0,4733.0,1197.0,-10714.0,-1731.0937871584656,16383.428153475274,12833.091404659059,4736.505205849661,1204.779638871475,-10708.390982125518,-1670.4407018338206,16211.77051465358,12894.628853143387,4710.75495786519,1201.8699688901663,-10711.999084984554,-1716.7541858261966,16477.74925211953,12738.391696223864,4740.789111271167,1202.7334732313168,-10703.45704327749,-1572.587357249219,16511.815710965577,12725.340060650185,4729.635657204673,1202.0786549343688,-10721.482301162861,-1661.9929538456347,16521.00854419794,12781.176698788073,4741.514164056255,1190.2051387207737,-10694.604210085496,-1772.192375532904,16273.1692988587,12689.72938256608,4724.972161715497,1184.537706183712,-10714.487915211557,-1490.0249350293452,16477.832619312194,12699.634252465681,4734.908306420963,1211.5765031368474,-10718.69258798184,-1744.7568829574222,16514.773747878575,12666.278379693887,4738.19640657706,1206.0605411377428,-10721.760427639601,-1652.1744521712526,16311.870469611178,12592.792997545044,4733.489879183375,1183.838697636428,-10720.57511368763,-1677.6602080981293,16467.358135430146,12517.21314122932,4719.027599398563,1195.9205819346143,-10720.363225022254,-1569.8429686892894,16403.58602754781,12863.879376528172,4729.490073869206,1188.9961882460639,-10710.610200291323
3336.0,4292.0,16684.0,844.0,764.0,4301.0,3171.319810881779,4344.652635523448,16800.91738364481,835.4737787901478,765.1853622003796,4329.455754616616,3439.853442122943,4219.400463956432,16629.14371610602,838.1155992614052,756.1791454138788,4278.209855501386,3504.0495193972233,4366.305842723017,16760.874590451258,851.339406051561,768.6803627817588,4285.140305587422,3339.946938167022,4159.729813934338,16881.029222644127,850.7143864448985,764.0110341638433,4318.797584156065,3222.061291010782,4395.239960401039,16753.574552787108,838.1591626018737,771.5435059348292,4295.301548342069,3500.580866543374,4245.820448966515,16731.127004786584,842.8704706147786,746.7793875586942,4281.311713815724,3408.4124999442624,4137.962056365181,16817.8077409247,849.2929317293119,757.2999348901315,4306.344861058111,3559.783721694835,4445.464883034213,16691.396150117693,861.8887336791323,745.8950299570268,4298.962488777692,3233.5226326675033,4297.322369017332,16638.409782842802,864.8543059484233,759.8105456852816,4308.526560686196,3278.978620132589,4233.505269630024,16621.50982718912,843.8119303306827,762.4611357280729,4323.20543030475,3445.544461152789,4338.180380575597,16672.02681711344,842.9959926601072,754.1494914919756,4301.976543931909
2652.0,4520.0,15896.0,2346.0,2040.0,2962.0,2525.2508020432274,4541.481550674607,15807.337209462177,2343.42477677693,2032.0316924010626,2962.9145400783136,2607.258234919773,4530.241194678002,15809.803982588204,2346.4516147692807,2053.6239242800007,2944.9954608533767,2589.785479766276,4330.069521551467,15787.458714533223,2342.383213647202,2023.1087820443602,2941.8074602888228,2703.8165149113856,4409.47076974468,15939.718498952634,2334.964259636539,2028.8217562544844,2970.039423852161,2591.160877211931,4506.356887172029,16055.816298665752,2349.6663212587637,2020.813536813032,2955.598608456124,2478.050828159303,4347.997286728386,15869.07113251725,2349.105440659012,2057.547193927324,2978.7134808860305,2588.6594318604766,4364.171997732093,15916.91096155965,2338.0178442401543,2032.6436283231633,2952.9837624770244,2583.143433081755,4622.361178588202,15938.509647280174,2338.818835882604,2034.5962941966995,2975.005004439285,2750.5246054814015,4459.412796662418,16024.969627382614,2348.814948228787,2033.2717208457918,2954.8210320456114,2801.709222160829,4443.2649222929795,15992.642128607009,2347.0816225357407,2026.8872940549054,2965.6510110335626,2550.002439512827,4483.276814307336,15867.780190360843,2352.177785270412,2040.0103187310758,2960.420721077602
2572.0,3188.0,16516.0,2043.0,1766.0,2103.0,2565.2052951451346,3078.42050122366,16516.642510498863,2033.554998945188,1771.0583228945336,2100.0486794665226,2461.1038745171672,3166.195686138758,16513.902876700264,2041.7349990792663,1763.3725080069246,2100.931199894525,2736.794607059631,3176.6626336202758,16535.270222933475,2047.9452675900554,1750.7708023025625,2105.151457997686,2503.6241624018353,3254.580807237036,16426.418500256354,2043.6032957051711,1782.4388733737871,2093.7505975898557,2453.8103791268654,3288.67377482265,16598.57769901044,2042.1338013502952,1760.5464430876916,2090.514708166398,2455.4403323727843,3207.7478927757024,16506.418624235048,2039.6799241071467,1775.8498037973109,2110.3168892644085,2693.1815383224034,3271.7909817585864,16551.885204306447,2042.1501500915226,1768.0351390901878,2107.436013994671,2501.9565612363153,3030.573521188673,16432.210485587526,2061.3185550340504,1768.8067561262828,2095.5087021096865,2566.8878175926975,3229.8105327424673,16723.215373471165,2040.4883796369154,1779.7759875756258,2110.6308860125287,2481.5053291149025,3197.7630498040435,16665.32547798256,2043.7581628642763,1774.2705731241379,2101.8423662678115,2501.2345901267568,3247.7012155885877,16789.11794768867,2045.8510350119102,1775.3342704877343,2092.0920240759065
4328.0,5456.0,16300.0,2534.0,1111.0,830.0,4182.528621600647,5433.798154905152,16302.403801386676,2524.151018327778,1104.8733720719133,859.4921904674807,4382.0206806830065,5502.181237378129,16472.05688832415,2532.9841212191895,1111.986236175206,835.6292348769359,4330.115410652823,5570.82587853843,16402.685290311245,2519.8515705877953,1123.9169812917562,835.3195099116938,4215.293585303142,5436.910622204762,16263.357565387669,2541.672583626136,1103.9733582200977,818.2054301633618,4490.9482446776165,5435.037958930078,16147.039914839854,2512.251978695822,1108.7932941989452,838.1791735373911,4403.43261537134,5315.730532754302,16273.253704487459,2539.747916344943,1118.2017331126285,830.6821081702758,4324.918974546068,5328.954012925774,16287.835298546464,2544.8013124560734,1118.9584454726655,852.5574013771794,4491.878346599833,5730.144361086773,16276.397997188293,2542.815601864417,1104.1888702810622,852.1418920998012,4310.592009207497,5429.034000121887,16304.34569180032,2529.5907288700796,1108.0575127225036,823.0043184830697,4246.39705722233,5362.41965188409,16481.28055010474,2538.7799432680686,1108.7889978937671,820.4292621513832,4350.895793245072,5701.933685382368,16390.763674850314,2514.502791169728,1119.2326064090025,845.4358732344313
1824.0,8460.0,14812.0,1255.0,190.0,2790.0,1922.537514451096,8450.715115540937,14684.09861406958,1254.011183540667,185.0784937036968,2774.492635241966,1765.6000983666227,8445.376238919544,14982.325903136538,1271.1366131111154,199.77310874183667,2796.82072740976,1782.1711716778643,8709.048647154748,14655.784565807351,1254.9747903594998,189.84510140268713,2779.156800361022,1880.8875743776732,8451.617457916658,14976.995524320757,1255.764745828575,202.6124919056697,2795.985582220309,1800.2638433354396,8327.335001214118,14810.35823761921,1252.4385611626121,200.32158431659326,2787.4059796756783,1803.2990880366333,8337.255655241026,14626.55282228884,1270.004410525154,189.37350210859196,2809.152368444305,1835.6887153147395,8516.078999593756,14768.777843294238,1255.5614553289715,200.01553000608405,2806.320086645739,1692.0804520707034,8436.236626483977,14761.395561216283,1252.7487117196038,163.36630211557272,2802.951927564403,1946.8360526024267,8331.016824879604,14738.254203782011,1260.3372582141565,200.4997803445538,2801.819909041481,1880.1870222044759,8577.867329522704,14730.02432323148,1259.4985618385476,198.79421074470818,2788.1451649904407,1893.63997063973,8460.967293159543,14855.636035557654,1244.9637092387547,197.4554366745449,2804.2543033792103
1104.0,5320.0,19908.0,1082.0,2026.0,4667.0,1099.8299221232019,5548.51407224537,19981.022910486055,1073.269967010768,2009.919728453597,4666.190089388023,952.818265554575,5155.26733444063,19912.50387732396,1082.690202579475,2042.3997637202076,4677.915931994965,1221.0575254459634,5383.214011246118,19827.255862961578,1073.3416260278348,2024.7137609781244,4685.183694223488,905.63810311124,5363.630440857918,19925.976510549746,1095.3131199289692,2018.9164615607858,4662.463709567526,1324.294139026817,5359.599932933861,19761.168112974214,1083.2163306855082,2036.3640106037094,4677.03569743169,1253.3081285930734,5161.559069499922,19922.117397572336,1070.9042072647997,2045.7162563246504,4679.600428071734,1220.563510163731,5244.737722071422,19887.181734893195,1098.7455944787396,2022.130191914247,4670.537500603225,890.0031041370651,5295.093607135649,19746.126547338063,1061.4471703839135,2025.5883309274798,4665.085237726079,1041.2220610350855,5407.7810405649425,19938.128356543853,1089.35459330169,2024.1441196292956,4667.6670211332075,1099.7145671345602,5347.675044076436,19832.915325821064,1088.9874838991516,2032.8330686719376,4666.175875678531,1073.6103980005337,5267.937551868614,19943.898268166045,1065.9788315734763,2021.64830176814,4668.986819108167
2224.0,960.0,16332.0,4240.0,1510.0,4253.0,2374.629070592926,834.2211790712547,16345.102816127479,4228.628135757536,1493.2278932915945,4259.993569671977,2140.390665032873,887.5487770976999,16444.396557198463,4228.114770399658,1499.7212522910884,4247.249568108428,2403.347180422446,820.3651034372309,16358.314788095624,4250.7808438505,1490.3630968462664,4257.153162876129,2137.455675432444,1058.137104575469,16482.157958892712,4242.708188926843,1510.6040092442734,4249.980869687535,2185.783580486242,1024.5662429453475,16396.978122048393,4241.513990883434,1500.3089871193706,4243.313850974023,2405.5888336507087,968.6833621746448,16203.962436058784,4236.298413621008,1524.1218099485968,4246.73810732313,2341.227401971107,1048.0255693045872,16413.906657655698,4262.990215894446,1509.8990049276313,4262.503654806117,2412.2243046673257,1154.673245831007,16237.57989638955,4236.407935341831,1522.6700312506343,4263.39996989602,2320.5202492817507,927.787456116312,16273.454104115399,4234.141382376977,1521.6403778587016,4257.920960783635,2203.077583633958,919.7741409899677,16208.343476918066,4241.345141065902,1516.8378583186611,4238.333917405329,2133.885586368465,809.8985192443366,16265.02793166408,4232.529281310609,1508.1997826800796,4260.699947802481
4492.0,-6400.0,15784.0,3610.0,2385.0,4758.0,4568.874797117858,-6456.805417820441,15674.397619256959,3599.2438187528783,2394.5224716195903,4747.409856850521,4474.08907795196,-6300.968862559799,15830.785149035983,3605.898822977629,2387.9393364536186,4759.976323402223,4530.928191571521,-6527.597305810165,15843.715989053571,3617.6741082708554,2380.628074984845,4752.964141524276,4555.728497513411,-6617.982129465215,15660.13801305986,3613.0819083085617,2386.287313951944,4764.490375075223,4385.220347823101,-6298.724741257206,15674.077790001103,3598.5391889412454,2382.050501335571,4767.952712237743,4346.6695532014455,-6348.518508105698,15847.4864260978,3603.1673177645953,2377.5572057022173,4765.286406068536,4402.88833596416,-6416.743274405778,15867.03498809526,3595.5401885202905,2369.9493551889555,4767.720821937106,4411.711408383927,-6336.473813102993,15869.943104137583,3611.405212769361,2409.8302605334493,4747.254702574097,4440.732262445568,-6369.032550244511,15758.793140799666,3617.9520263062827,2384.475602146167,4774.7399533197095,4511.23267188567,-6374.755219816667,15832.671223370098,3618.388056695404,2397.9698851636094,4765.264884967853,4537.977406968397,-6663.685064636365,15784.600110134113,3613.921647514944,2369.8234625271166,4745.768981926234
-576.0,1644.0,17372.0,3070.0,1339.0,1781.0,-714.9025041615984,1725.2945258017317,17309.221442039954,3056.6263253398924,1342.7234473321128,1769.0307050722688,-598.4608764333836,1500.5566283680853,17295.528513790254,3054.539052223942,1329.1241412201587,1786.5645835254084,-759.3543858810519,1606.337717294389,17194.24415400983,3062.88162453382,1330.3593423343264,1757.384276545099,-552.2756491155088,1725.2342520199986,17224.399448660177,3081.0185380560083,1353.8672257486537,1757.6898754909582,-569.8862834182545,1629.502505796871,17419.80451059372,3075.80948519669,1345.5639390745414,1771.2880346019394,-481.4941922999875,1802.0149832775387,17430.287838467666,3074.332316776126,1348.446914565984,1775.0358922727207,-610.1328864254128,1723.0701174070618,17536.85343296068,3066.2874507895413,1335.065065379982,1783.8650937709172,-456.4525274522254,1652.080786491399,17214.389521940968,3072.9321151005133,1331.2707193888077,1780.8541874114746,-448.1223383066243,1563.5880481848894,17319.637071335117,3077.6367323639265,1344.0083827278354,1794.5484428947098,-835.6187441783372,1634.2010147742267,17407.720719493453,3059.9587392260055,1342.5922809104002,1782.4658453730312,-566.8826607465585,1671.3993328330826,17402.142486513618,3073.401383301562,1348.9377996484955,1793.2609753968504
5248.0,-6704.0,12912.0,982.0,1797.0,-11808.0,5207.75319296214,-6674.06561812053,12878.738843132805,962.590529004756,1797.52451582602,-11825.505920153668,5099.244893110768,-6741.635653662032,12867.912874867432,975.2620516235953,1808.745762196899,-11813.022156116669,5329.287807820382,-6720.161795589675,12993.341394359935,983.8337197319587,1792.0271552735542,-11809.038684440715,5229.75274024618,-6736.476869277945,12897.918662011069,998.6160899033035,1819.496162909597,-11822.655232139045,5098.106854801148,-6882.693593379254,12927.02554477798,963.2237230513185,1812.6633369918047,-11804.716921565394,5345.498008627108,-6734.303130073172,12957.729069468018,976.3587872212851,1796.7727480189883,-11804.563289365125,5209.190859374482,-6730.8129752629075,13084.686878107363,982.7549131750137,1810.7705872429367,-11807.371642817665,5140.302510203335,-6835.629097645938,12898.365668848346,978.0297464429519,1790.0386563537188,-11799.418470079654,5255.794302205026,-6797.500724829387,12875.73663962296,993.0605682935469,1788.6493145377442,-11802.202191927141,5466.37549971759,-6762.742149147697,12940.653615201933,998.4445998455012,1767.3909287336312,-11835.869216997258,5359.570454062653,-6830.91137795824,12980.686391632613,978.0258440864546,1796.0460503129464,-11815.811916618244
14616.0,2344.0,15916.0,5481.0,870.0,-24748.0,14677.584989700652,2240.3000231085716,15906.988580730615,5486.810928203341,858.9381205470487,-24751.016421058564,14529.59179364344,2371.5129959441097,15980.662415461393,5483.053552346854,865.259953576735,-24754.311154924588,14597.666467449348,2311.507601519553,15956.78304834703,5474.075788002545,867.7235628344081,-24749.68865466842,14508.392909728156,2240.214129455913,15945.811556229823,5469.278024531576,872.9756950047797,-24746.605484595966,14531.103370958872,2363.687634219305,16024.77281348965,5480.098117883218,868.1467836656926,-24748.597782226734,14845.474990533306,2358.783085656775,15974.477354431996,5477.817217363657,871.985890216324,-24758.01176597398,14526.671375257569,2379.399715731087,16020.656715294252,5487.779657785736,875.6163800660399,-24758.17310942329,14728.7921238893,2376.0905400714955,15881.961023942487,5471.935629561205,883.6235464860671,-24730.799844011664,14659.505635203474,2358.8986601214847,15834.570064111449,5514.750238855543,876.7761010674086,-24745.67414948033,14501.926975746906,2331.780590747032,15909.931634670751,5503.462313999895,872.7277332093933,-24763.007425777258,14451.008473091413,2262.718038134062,16117.465132554758,5481.68970231807,868.8918779184233,-24740.471197502055
2296.0,15976.0,11024.0,1423.0,688.0,6137.0,2297.4427134597963,16036.145287060825,10965.718833825667,1429.1674661809268,678.5653728341318,6126.37013064054,2305.9610090663764,16005.289986958187,10989.845514984363,1431.9375460990134,691.9193301758144,6119.468653581195,2542.0233987373867,15875.536671462554,10902.860006695319,1428.3214942124573,679.2353911078978,6127.117158232016,2218.505386954295,16050.965414914797,11178.843057330918,1412.1882590283838,683.5987203727756,6130.128029835491,2244.2492436807365,15961.776453024868,10906.203216716882,1414.893650339453,686.2768692400587,6143.35669152302,2271.5991669171603,15792.30085608351,10973.695199702392,1425.9169054546794,686.9763169119844,6146.524732326301,2323.066426239447,15862.986136544598,10888.08171487687,1423.8271377611275,688.1110751541711,6132.736624536031,2377.515224475601,15865.461201525806,11069.0417084366,1427.4803069684297,688.346368390376,6130.48230440495,2427.9371047078616,15810.532364625788,11163.086784593565,1428.5488793807601,687.3888437548001,6133.548722926193,2316.3342772215083,16008.809052249342,11084.456303424155,1432.3060530709797,670.2640297180525,6135.080713962171,2251.0487186135683,16014.782064617386,10960.42379144594,1453.793586572993,701.828255546063,6136.40427909013
2956.0,5556.0,17760.0,-6429.0,4599.0,5088.0,2913.675970358656,5561.132529296968,17759.703610925193,-6438.916556002825,4588.814274639252,5081.698587949483,2901.2047136577617,5527.064323952926,17739.806891786502,-6419.39812722062,4610.500039206738,5092.817592749222,2929.1297480421085,5607.285173273394,17715.652629507356,-6444.7728474275455,4613.389414480079,5087.812616723636,2975.026146979649,5578.488650611918,17686.12948555741,-6439.138262972957,4596.552103845907,5089.173742639057,2865.676285431129,5422.7239152502325,17838.3791278547,-6430.725286767909,4584.772060135467,5085.676250466493,2857.7530490479617,5507.564948325686,17728.302615681176,-6427.2983081831135,4594.98096223335,5078.4516142702605,2948.2298329245154,5620.8911548303895,17755.946925728153,-6426.6626551084555,4615.561321505107,5084.84345404663,2927.449066529337,5443.373008896234,17781.84406600721,-6448.359734641645,4595.833525519842,5083.6563716532555,3007.9508693579633,5528.106433430697,17778.32216245383,-6422.775702943696,4600.7412655573335,5083.055963378593,2984.7017059767472,5556.536898248082,17746.78516776316,-6430.899781379294,4594.335510584119,5090.883378209165,3104.491995104675,5569.395615382991,17651.3505319673,-6422.653048301146,4589.781443845481,5095.6189129242875
-304.0,6592.0,19912.0,935.0,-577.0,7469.0,-280.819314255116,6574.553064451949,19973.90611761754,948.6930884654637,-574.3621242983544,7461.802903685561,-207.74387671156217,6512.3388269910665,19775.386700773,942.9004820120138,-576.6830607912401,7455.499971099995,-256.0353089251567,6694.383858685618,19899.64587729953,938.2442684289326,-574.1629230641191,7467.768828694989,-354.45686384888745,6655.967148957159,19898.840045913534,932.3718394621011,-584.8577194831336,7465.263206396278,-270.87570203660255,6523.702908715767,19778.80343706995,958.7643815912859,-578.8801278668817,7463.090588160277,-339.79164359020524,6692.581705495147,19961.153713410007,937.940086615165,-577.1270707822504,7462.970971280533,-340.8286597569134,6619.4071176028565,20084.43323206511,932.9986603721759,-590.5989334763639,7457.482730039814,-205.68611957820002,6641.905457012229,20135.46684307092,918.6965884153888,-568.3866866613661,7458.20840372946,-336.8677813168605,6607.853826135766,19898.06797147476,953.148393767903,-570.4758721544905,7460.329287513834,-375.4346476668353,6618.762676694852,19813.678196230987,915.052952241745,-581.8872302984358,7480.080935029805,-351.14886322534045,6500.230495314808,19905.531061990023,930.7169707974125,-580.4758362137363,7461.0431562522845
1476.0,1920.0,16084.0,2052.0,827.0,8999.0,1383.6338521228636,1969.7464062120378,15975.272125509333,2040.6311855460144,826.9651066009314,9009.171731976547,1482.5582934593347,2070.6730090109045,15945.583152155592,2038.531369914223,823.3391492540578,8995.670451570828,1645.8527142387977,1923.3906437895619,16170.565140796132,2050.946650912492,825.3219245521502,9007.064061403751,1535.7183047708404,1752.5061275997753,15965.220681303377,2053.157742247774,831.3333872691974,8977.075205267221,1296.575987452796,1947.6831134502975,16160.198418884047,2060.849621502857,846.3731884709119,9002.7559479798,1470.730542942917,1846.3174831824458,16002.06268694184,2042.832110623113,829.9648018402485,8998.692140153764,1496.5755689467396,1903.2886331807504,16032.618657889785,2056.280429551328,827.6450801883987,9007.162265112593,1388.9158765260765,1766.1365136188015,16142.420718222487,2055.2168043952333,835.3475058138602,8997.956442783792,1449.73732675348,1855.7193877112086,15915.419811590406,2061.7314785778763,837.3857635586113,9000.233581745633,1399.754764370897,2004.9847376657501,16143.095511761747,2061.395534566633,832.4781144018149,8994.935005893025,1438.0385858904995,1912.5873635012088,15979.137382723833,2052.1945541809987,828.2441963885852,8997.284833124664
6264.0,-852.0,14048.0,6363.0,1175.0,6398.0,6434.982734767471,-856.839376637524,14003.360496737116,6356.947895815247,1197.2302688395584,6388.535792412333,6257.577718900308,-813.6458935631312,14154.033793147652,6363.456965052663,1176.636553340641,6406.005976292637,6230.76728803728,-833.134743670285,14032.738169993809,6381.377968617778,1169.4181741526993,6389.689807407041,6297.10587069103,-733.7143583498073,13986.114301104872,6372.2368805874985,1168.3536381598617,6405.452141811896,6316.335328616747,-817.6207587684452,13918.164670825234,6364.245064991295,1180.0517378492457,6397.7435900357605,6361.576965300824,-841.817076367097,14036.668764987813,6352.885799701187,1185.2123187768468,6403.831219329743,6255.048346396638,-735.0988804688773,14176.271613117324,6367.976812948471,1170.7385311602168,6397.49992746782,6171.668295241663,-946.6696081401468,14226.04002878254,6382.248546578142,1190.5597931380669,6385.962908999377,6278.455452488377,-626.8792252106693,14115.683847259432,6365.617034150734,1181.083475112207,6389.58325488876,6420.490996611766,-840.3391697162484,14100.882861631775,6372.133255287498,1173.5840439460485,6404.962284952975,6259.141117037625,-982.5938709759046,14042.828407901492,6376.3216663965195,1179.5259851742464,6386.38592888136
3084.0,-7360.0,15736.0,2428.0,2035.0,-248.0,3114.761124059003,-7450.486609323162,15757.657730217847,2436.2210168463544,2040.2094215575396,-253.9827812682584,3127.9311945074437,-7357.593428883745,15655.15743737348,2438.340109001147,2032.4769883784568,-236.212474578676,3041.6676419019673,-7509.898798361765,15826.904106949587,2420.9874023181333,2036.376526203904,-264.9043038950164,3139.051431937076,-7159.472731101902,15509.938967299951,2411.334870901389,2035.005161964018,-258.148303151919,2890.5155610619513,-7277.5832313303945,15865.33584809237,2423.9989878153756,2033.2824707827888,-255.93475997924864,3079.5428477294677,-7363.7556132271775,15611.177418748575,2443.451829059237,2041.854197498701,-252.14525101218214,3057.588121337874,-7110.289634054271,15773.399079290186,2412.1313657972296,2023.2702705067918,-238.68945614627185,2956.6267089553394,-7341.308665895346,15679.573602926244,2438.0145233283415,2021.5941340809395,-241.46956469244034,3182.7417785877597,-7249.432910628083,15682.367491842266,2407.312947371057,2039.8435443332544,-250.48635742837774,3003.378211698723,-7286.956564861493,15746.943570402773,2423.173909702298,2047.0912735822312,-222.74238729111383,3141.1371563688854,-7469.32848156512,15652.897587437657,2417.272735619909,2029.5705200212751,-258.05574697093436
1688.0,-3288.0,17572.0,364.0,1215.0,-5224.0,1721.0980047215849,-3382.7349854806725,17616.59424755755,368.0303870967875,1217.7571653256302,-5236.598479652282,1750.7888911768016,-3395.7557801950993,17513.482643776675,376.79235295961166,1210.388251750077,-5206.993934211179,1667.577348446257,-3213.8497696962404,17598.653880666294,372.9198171497821,1210.0561873892761,-5210.857845572443,1681.9896386549701,-3231.897050520661,17527.272977662586,364.47060488215305,1194.4511783189878,-5239.6927730125035,1746.7815370290214,-3112.2211055064618,17515.293657788006,352.3846188082527,1218.4604933272865,-5226.90483867338,1683.7254775516426,-3240.4729563428086,17597.987507989343,361.5665105330241,1212.7964376829857,-5213.541752550718,1737.1891776596526,-3190.76821233843,17550.27457863148,368.1750600995098,1210.8570052275231,-5229.263226120222,1812.07750137881,-3370.2252741599077,17613.629130970505,363.10499172783483,1209.3236968829963,-5212.16748484379,1839.471757693827,-3272.480382595235,17557.612642092594,364.4108658352277,1216.190214569288,-5236.050348001203,1645.781021898811,-3264.2832352421738,17630.326452713398,356.84126319400343,1228.8431303305374,-5215.173889482641,1910.9679386554544,-3230.531057221652,17480.706223525503,342.7759790741468,1227.1873537777633,-5199.281891196831
188.0,-1420.0,22116.0,1394.0,2056.0,-11039.0,-57.13594906517352,-1173.5293234673172,22162.193352650014,1383.105651520363,2064.5047434175112,-11038.402593503763,108.34092259300736,-1200.8060572269285,22122.864215037185,1397.9848315495208,2067.1204008948207,-11038.060231702562,244.59371387116857,-1505.9122693802317,21921.204716099423,1399.5860260889388,2061.051861862524,-11038.43718911273,134.7823886004875,-1319.1077829908695,22188.108372231414,1402.186962402941,2055.39626118328,-11037.245610724834,11.87296210767812,-1372.2150337931607,22288.682345943576,1405.8317796443673,2064.704454787939,-11044.872677737845,248.44662337350277,-1376.8534190491619,22112.61733895205,1387.6900512539937,2056.0680784220135,-11037.300222168586,194.48396565793908,-1452.9965843042726,22108.056892783712,1391.2845595755236,2061.5129460873272,-11050.714093928846,221.18737181097595,-1363.2878700544572,22046.620411166576,1393.6734626264363,2067.0402001007433,-11040.505233971837,183.73633960196997,-1351.1451268146193,22074.01476073422,1397.7036360518518,2062.140204656643,-11047.830339723248,112.35287926512224,-1498.169258655234,21923.654998810576,1395.3701566450154,2046.2838382179375,-11040.464807699691,423.8641201261953,-1424.6586510071386,22244.63603494873,1393.161078701295,2051.703302586078,-11028.501715584529
352.0,8032.0,19444.0,1771.0,3431.0,-12181.0,269.16704588289195,7860.980909653978,19334.5048926047,1762.13522820186,3433.2802057300564,-12177.91456278551,278.73796592564463,8073.7359254328585,19477.60865934235,1768.0787196945162,3433.437367902357,-12176.997249849437,278.3294910372468,8254.374692351115,19408.431935284658,1770.5638532057328,3436.2049461716065,-12183.871099408489,351.78610219933756,7961.24783570336,19275.286051864252,1761.5776496228834,3433.130384695787,-12167.087245313003,295.87426786433065,8038.525329583833,19376.79365206793,1775.7599295432929,3429.3692407743993,-12171.232957425827,245.72360651836266,8141.557493155985,19627.30581350489,1785.3507405946798,3441.181443099565,-12181.016793759354,450.2763265293339,7950.754007486998,19408.364881755846,1759.8581959512285,3440.6066490275302,-12182.054374432446,464.2930401374031,7893.458522234788,19418.393121531415,1767.9024515485628,3438.3965190881513,-12185.606112556272,184.22346088389963,7915.037888694517,19439.813394597466,1775.3138265134646,3433.955033320402,-12156.780733077894,293.45960377717495,7990.21889480749,19370.624424981488,1785.9504924269597,3432.3709277179246,-12172.213346083458,395.99552030050427,7941.052863123163,19510.887352781443,1751.2315297926305,3426.9880957920177,-12181.976669623904
2908.0,18280.0,19152.0,2098.0,1241.0,-821.0,2913.946381219292,18360.201929708594,19220.964726226073,2113.466286370349,1243.6469957012605,-812.2714842353739,2989.7404930280168,18484.23040567315,19022.41943905729,2110.0357181697814,1259.4600898171727,-831.3202205389158,2717.6097496956063,18182.42251995329,19188.564028914087,2092.0606016062934,1241.5283522279467,-829.9035448945166,2933.766238074346,18314.55302143165,19192.05117375898,2098.9012217214536,1253.3633740535086,-823.4452097847148,2915.5711536428007,18145.770629595394,19177.21565442808,2107.4816708975227,1218.472339201416,-821.11628352724,3090.426704883076,18349.11460068691,19142.48375421597,2096.258389911647,1240.5417956594024,-833.2130913256563,2721.320988719959,18236.337222752212,19072.27492066925,2097.9082790125535,1239.3762577072707,-834.1763779407377,2836.9635273022564,18146.965287092553,19106.459088585325,2108.9450952345574,1243.802735052087,-831.6707955379455,2804.374454187913,18190.313133017095,19087.864423044928,2099.716696756003,1253.8948224666583,-828.963048548846,2926.279119687467,18386.241856112043,19203.10161477132,2109.8554516739773,1236.9060918204536,-811.4734455596958,2884.3272304017,18335.632506697813,19223.20311715891,2098.968778269284,1233.5020532377735,-822.5980668242167
3052.0,10040.0,15064.0,-855.0,1399.0,3369.0,3080.1462302295663,10163.698228516942,15158.866181474978,-857.3299135613455,1374.7779645025482,3361.332679094784,3046.1778543921087,10130.82697907389,15128.999803196855,-848.3798051698885,1394.1411788274306,3376.146007136538,3105.3263307232,9887.81941998035,15241.4456620461,-841.1033103403568,1394.1871494810368,3363.1722436019763,3048.5246583388985,9983.001710320907,14942.259133515061,-852.8162284737118,1406.5720331632715,3356.560794102376,3096.775732439311,9987.457157489729,15144.71941792134,-862.9434955442875,1411.2303485575947,3367.473490677238,3184.428884247758,10003.770589507885,14930.576293463693,-852.4558796427007,1399.993747709408,3368.530173256676,2870.4444030443738,10107.618553080712,15223.933950127052,-841.5847320575073,1392.3621974188213,3368.87674538384,3049.118037172097,9964.836204719719,15087.291141689673,-847.9544841265963,1399.7839665383212,3360.3913127681035,3211.953206263382,10011.824909611745,15173.806950192393,-861.9760473197208,1399.7085953270107,3369.0535492133104,3020.702836109534,9982.263346081887,14879.594185633357,-874.346353747666,1391.1497682434099,3365.7939379930367,2965.953283382224,10004.864241066776,15082.029446517588,-850.1520857678843,1385.028963566751,3378.510577253573
5560.0,6744.0,18440.0,3770.0,-1876.0,7520.0,5528.949195378632,6701.751480951882,18316.517709364834,3767.2483543101985,-1877.4619262527965,7540.198826745692,5627.262625385253,6616.1800214507075,18455.056421210043,3782.8163775763423,-1887.6857261080909,7535.948215328492,5596.533778680195,7067.611056202624,18548.633550043218,3779.536455863001,-1870.7438575189253,7523.368855306397,5420.279610640679,6814.655930608779,18318.432537456225,3776.569454305234,-1883.3343191019692,7536.808064826473,5561.02573448317,6737.095395175009,18198.032097857937,3767.0291215414422,-1885.855823822244,7512.187058712741,5517.254240661523,6852.321486088456,18421.29898704232,3773.9151746099715,-1889.310003720923,7513.770223628234,5550.321848962852,6630.598261800598,18398.961552201545,3781.480270104276,-1878.0635179452993,7501.781297999147,5523.11686498922,6691.802864430978,18390.252601853466,3783.8609906697407,-1859.3583626297366,7526.368665527416,5504.252701223413,6853.481875728327,18463.09989782379,3780.5450624034183,-1875.4710805182435,7529.96154205381,5563.41842531109,6922.0342765249825,18364.879161671935,3768.102654568593,-1873.7825942743061,7509.683720880828,5647.365739920912,6719.863274656686,18396.63747190132,3777.061194042712,-1882.8458353538535,7519.4686343843905
6108.0,4200.0,15068.0,7430.0,-64.0,10582.0,5910.6572193049915,4296.406623712605,15141.40532692313,7426.75801484531,-71.65168401099665,10580.900276733662,6139.274332275948,4157.185026910544,15325.33934974059,7442.4139629943265,-63.713081360054694,10560.024455207476,6112.167266237811,4092.642748905002,15142.721277463621,7421.643055905492,-65.94995968764252,10603.15491926127,6177.343925664285,4290.23227469535,15177.127517551004,7430.607947921062,-67.28209998493165,10597.061190893424,6216.180916261286,4381.583546365684,14995.042341775175,7419.232933450715,-66.01692170554708,10598.012765785625,6074.641939582566,4269.937685847375,15221.21400621516,7431.829143529342,-62.84184073914291,10577.29925998249,6135.327430344539,4093.607115422418,15232.297539438823,7407.926336497926,-48.609185463638475,10565.50260006774,6066.578033857818,4198.190581358728,15087.478843317855,7438.967243636079,-60.26084138444901,10583.926076006295,5977.844213479523,4204.091442123729,15109.961712949842,7431.910318224882,-69.67582507687483,10595.826120693375,6000.697742077918,4216.312164909509,14932.519808148474,7422.800211678224,-45.40135532169323,10569.890272658467,6148.919963318039,4184.837007948842,14967.334172890072,7450.619438116246,-63.984231872467014,10576.651800243431
5512.0,-5432.0,14864.0,5689.0,181.0,8526.0,5510.920784754611,-5266.018575856961,15095.498930181426,5684.441912392638,186.8242221583246,8513.542067438875,5610.010188126693,-5602.120558514229,14716.160452003856,5696.352131245382,202.9811269581599,8512.53715634137,5560.239215424684,-5485.669995843191,14814.682984394167,5675.777615680723,173.2136265011958,8526.548195402862,5605.629873565021,-5354.131942164267,14943.496182643452,5667.907124132892,174.33357975397476,8538.071870206877,5412.919198195511,-5248.1229110804425,14947.57713295895,5694.757001805242,167.34345092694753,8528.628398143055,5608.163638658868,-5351.209164767429,14803.265620933118,5696.045691231766,182.66973522549085,8535.026077443314,5361.059541583806,-5425.171433280516,14719.735117934899,5682.606339360508,187.2899257349435,8528.289143315009,5568.457698509498,-5354.378298171718,14945.260940660368,5705.101715778623,190.08032007301142,8522.483305340635,5560.172916651587,-5645.498408935297,14866.44580527932,5692.282546175669,167.62152754146908,8536.449860327386,5535.795374097327,-5265.547131064731,15052.509037062719,5685.717689756556,178.249517993498,8523.977148594884,5456.473302398512,-5454.629379878166,14832.587293286926,5696.966675201612,193.76788046880304,8517.482534925917
3544.0,-8712.0,16208.0,2431.0,1941.0,-30.0,3455.193349286181,-8750.793462289752,16195.544951365104,2434.1328377759023,1937.5657063114302,-46.21736790017699,3529.6727091101893,-8843.156637549659,16191.840061467527,2439.482499170788,1925.3795783484968,-17.727996791733567,3563.3260003756027,-8687.876089786847,16167.70546529563,2422.980259434461,1944.5076942700964,-27.115072461164086,3360.227464049251,-8499.338896474705,16065.455728633222,2423.419552076116,1942.9077625856744,-42.09957500382065,3512.727079387717,-8685.49423988989,16199.649200831322,2422.6284802801165,1943.5799043110367,-24.391454845715373,3578.84632592666,-8720.463084950667,16149.815564189556,2416.0846715124408,1967.1915741682174,-20.896967783124424,3368.3359686568556,-8680.853736116107,16257.69963931789,2430.0392679417123,1951.3897492302654,-30.719341754859474,3522.734085472113,-8618.309103032883,16100.705807337188,2419.4588947450056,1938.6568774987686,-43.63840501948515,3598.7961479395594,-8776.286635282322,16355.42665330456,2418.282827853694,1936.8647007243346,-36.537211090159325,3455.4764561647034,-8732.379931184625,16104.333647961972,2425.7809429792164,1952.9875689205903,-34.23279473605696,3756.5641741580866,-8872.718529696434,16090.265718044575,2437.24871800128,1935.1475429259647,-20.42807892856515
