IMU1_AccX,IMU1_AccY,IMU1_AccZ,IMU1_GyroX,IMU1_GyroY,IMU1_GyroZ,IMU2_AccX,IMU2_AccY,IMU2_AccZ,IMU2_GyroX,IMU2_GyroY,IMU2_GyroZ,IMU3_AccX,IMU3_AccY,IMU3_AccZ,IMU3_GyroX,IMU3_GyroY,IMU3_GyroZ,IMU4_AccX,IMU4_AccY,IMU4_AccZ,IMU4_GyroX,IMU4_GyroY,IMU4_GyroZ,IMU5_AccX,IMU5_AccY,IMU5_AccZ,IMU5_GyroX,IMU5_GyroY,IMU5_GyroZ,IMU6_AccX,IMU6_AccY,IMU6_AccZ,IMU6_GyroX,IMU6_GyroY,IMU6_GyroZ,IMU7_AccX,IMU7_AccY,IMU7_AccZ,IMU7_GyroX,IMU7_GyroY,IMU7_GyroZ,IMU8_AccX,IMU8_AccY,IMU8_AccZ,IMU8_GyroX,IMU8_GyroY,IMU8_GyroZ,IMU9_AccX,IMU9_AccY,IMU9_AccZ,IMU9_GyroX,IMU9_GyroY,IMU9_GyroZ,IMU10_AccX,IMU10_AccY,IMU10_AccZ,IMU10_GyroX,IMU10_GyroY,IMU10_GyroZ,IMU11_AccX,IMU11_AccY,IMU11_AccZ,IMU11_GyroX,IMU11_GyroY,IMU11_GyroZ,IMU12_AccX,IMU12_AccY,IMU12_AccZ,IMU12_GyroX,IMU12_GyroY,IMU12_GyroZ
7328.0,-5932.0,14116.0,1847.0,1367.0,336.0,6770.880355685994,-5638.281599192212,14011.464589256802,1845.075685406341,1360.141562209542,346.15516481000145,7087.683054258721,-5840.87000014008,14925.968490865716,1840.8937789630402,1362.009335498458,330.6384938500522,7427.162696053946,-5763.4788989115395,14649.433107419925,1840.0295636568062,1364.2195732316814,326.7227419606707,7077.719427829032,-6587.353214092627,14678.579548715086,1850.2230692849407,1378.2052567633784,337.2393195536791,7531.703984943557,-5138.4057030474105,14208.958837902243,1866.9233193371215,1350.163435540463,328.559290614985,7074.523416438772,-6100.943248608296,14129.962809731953,1859.5845007177004,1356.7913543741429,332.1578370409732,6046.683364045791,-5643.5056423278875,14355.693211351438,1847.4913955768784,1377.8618828420913,329.893297200513,7387.434670642883,-6497.215911525993,13658.978055196454,1837.2236013799886,1347.6197417351011,350.5303689541854,7857.356780335654,-6393.2713083433855,14152.724238644458,1855.0355589413603,1380.253132622645,327.6854433249823,7197.084777211847,-5817.327463297636,13266.03550579825,1842.2982723192101,1366.6209825725855,337.4137416913883,7455.896861188128,-6132.418741606866,15050.561397411317,1847.543796500103,1394.3011796651958,312.43549540321646
7424.0,-5724.0,14124.0,1486.0,1829.0,423.0,6211.469248375122,-5518.190566465845,13886.631279589878,1468.715460797586,1820.4700217389977,431.0748964369186,6971.684559040492,-6511.3992800745955,14306.91899818129,1480.9584559080365,1835.5948811152396,429.43123756932937,8047.115464059528,-5314.699308574703,14140.635233804833,1497.8747462405574,1838.09851021402,435.88856834236316,8337.325275246425,-5750.685715128259,14587.427871797894,1488.7379372013663,1840.5428852809525,438.4918904231269,7049.681540777032,-5933.549226632522,14158.225304823665,1489.7044799763253,1816.341144975603,424.477989999953,7384.261158256086,-4976.342360832596,13541.932847288805,1493.9767489879841,1814.3505237893264,430.35851913343913,7716.999597575452,-5307.589788085209,13985.06045516046,1481.6997862643652,1820.659165130736,434.3298479740263,6535.541034151949,-4811.7285988513495,13369.050164974042,1474.2236184648598,1818.961520452896,442.611149814119,7680.2906301486555,-5939.7888174525015,14127.209674058851,1484.6393037528892,1821.8813437377228,411.7714093644236,7542.361684469477,-6328.000714251288,14793.325574923623,1482.754268097093,1826.9675913590631,415.3767436457071,8050.313701576248,-5489.6736815096565,13817.468071046114,1489.8477928126224,1817.3905845325278,437.19934245149904
7816.0,-5748.0,13192.0,1645.0,1581.0,198.0,7972.933437985633,-5943.818798201086,12960.172617807446,1647.5586146981707,1586.8936420461298,219.10970527347695,8079.438992517706,-6392.309612780398,13253.863252794314,1657.3851652455958,1578.151378076012,177.93873794226593,8353.19906818288,-6932.656151756951,13442.002996183068,1641.1113116474596,1574.8960892325524,211.11900877834475,7890.919247108111,-5701.9998900662,13190.586407186389,1659.3568914771236,1587.6498987431587,204.6069431395511,8071.173018818063,-5619.6177237436195,13510.531879889037,1637.2937300175663,1587.1987232016493,193.19258052392217,8333.738721082767,-6069.248464968489,12995.48980795038,1631.956281201004,1594.2473003278508,187.47454196128763,7602.113101055127,-5677.412226506731,12973.920802998247,1641.8448777789035,1589.450119537774,188.83980118480613,7160.38472200064,-6037.049027237739,12759.324081339164,1636.311946347008,1585.4014590236297,177.02161704607605,7097.391570552981,-6289.0097822569605,13254.346897949712,1655.2987641964412,1574.7567330312415,200.3830057485155,7594.431806882155,-4990.840104879711,13378.856187748643,1646.655716587113,1570.3540091072437,199.779010647333,8886.339881639513,-5293.795172867116,13183.57541658563,1658.8425643722424,1578.0712245937848,209.16905337805065
7588.0,-6184.0,13732.0,1737.0,1059.0,362.0,8448.000253083303,-6084.011539798385,14034.513035643848,1731.565946866184,1070.5200788167363,357.00336494798546,8142.174361600264,-6280.941226051691,13353.941538960642,1721.6802109420828,1077.6050816140782,355.18451451296454,6922.761006180025,-5908.882342512975,14676.458566892381,1741.529808697356,1057.6190575737212,354.37564859516624,7823.46949928331,-6139.765989077251,13357.383894013368,1738.6635128085213,1053.731171474609,377.8478927257588,6904.125897090184,-6310.606813372988,13629.608778292988,1737.8682638377397,1060.9005039050667,352.6695581309874,7049.405538894163,-6054.313896703259,13173.968204370012,1760.4656783792425,1063.0371256238916,343.5302187791569,7931.195003593895,-6052.06000568405,13046.880771720993,1738.348785453484,1053.5799274918593,345.14409936772523,7800.711825364089,-6253.167525308276,14754.153573537482,1749.3912496417402,1064.9214478010317,377.22877961581514,6837.177952475721,-5739.176221943129,12988.893923011281,1723.2407844243412,1068.6749900390075,358.6448853146131,7722.997376060955,-6073.662678042999,13710.239811046633,1735.6936283672023,1051.9115677005138,363.52483854363874,7585.814440939812,-5824.818716942935,13019.57196766195,1733.2453315785651,1076.7196980119386,360.4696265563249
7480.0,-5856.0,14012.0,1600.0,1279.0,448.0,7637.44857988947,-5620.398729525065,14224.874812001517,1599.9828364501154,1276.3335123489392,452.2759607517121,7777.869461451128,-6244.513237718044,13503.86766612354,1587.1594803466683,1274.1612485753913,451.14621273007924,6451.4509570933615,-6715.878843534675,14252.115388602735,1601.8986888023078,1280.0061257768643,442.14155927568856,7945.386461444271,-6104.025941466382,14824.088099775301,1600.0956663605584,1263.97079938778,431.5952633101672,7425.920334155368,-5693.560601993478,14408.810576490514,1593.084158224765,1275.9026591060897,471.39497864573605,7189.696551176362,-5807.666635809902,13921.647006627885,1597.134459697994,1285.9229184164406,448.58686991194645,7559.222289517093,-6215.828153829835,13962.49485931722,1612.5320622108216,1288.8020692241034,433.1085837107248,7592.237510964465,-5465.371779560999,13837.66299382913,1605.4297004325344,1282.3385753754792,461.8264107023444,7709.64713876408,-5698.349089287077,13958.511969106414,1610.3924298615125,1286.3281734177185,432.9169126888061,7341.344124948826,-6009.868869391869,13584.098463953706,1603.3949369247598,1271.2619036899903,452.0929430654097,7455.568896897851,-5834.558206638484,13286.394033883727,1607.1708878552126,1267.754443672604,460.9600315308351
7580.0,-5884.0,13892.0,1653.0,1319.0,298.0,8960.02249029635,-6048.2616675444415,13694.113882767922,1648.153359292089,1329.89434077936,303.75329806171067,7767.1134634590935,-5896.524648756008,13657.594099678972,1647.1300740242666,1322.0291583521187,295.5319460857289,7568.373733087125,-5924.863660202762,13618.406742458874,1633.380679956914,1335.3295867713955,297.6360637726851,6772.593248707962,-4920.04539987395,13968.112038035382,1652.2740553072629,1329.0801814684978,306.6200598641087,7327.355404104916,-6669.815469396943,13227.869456926204,1647.7451918981537,1329.977376120492,305.38271800484165,7008.143977600159,-6674.98076875854,13918.878093017685,1662.123996783602,1332.4540860106308,296.6329962520086,7191.070296693175,-6372.015942483198,14675.790317897454,1660.5775482828465,1308.7338905520164,310.2699893004729,8399.625580524682,-6136.134535467283,14095.91228586031,1666.8472142979335,1312.59611064791,299.5286684631353,7305.539420948565,-6082.410878409865,12960.538976859581,1654.758110761727,1307.6195992685084,307.267313599733,6401.320313026044,-6041.983522435052,13494.630649139099,1645.7045493377414,1327.7408673550856,282.86666124655784,7332.229174088944,-6022.8025168719005,13517.77106179146,1667.3392040891413,1306.5544531110338,284.75468551378475
7504.0,-6024.0,13868.0,1856.0,1405.0,321.0,7553.072692010138,-5797.946003723399,13889.090338870905,1850.9306611111283,1419.3281625591358,319.94837496333713,7876.011589144493,-5734.868389644859,14404.25333081644,1865.718805723729,1401.998136153963,308.0061039299432,7131.258644705424,-4946.700086596578,14004.579388913333,1850.7808919246895,1400.984387013006,320.7279188007064,7482.602524873007,-6037.626167685463,13385.553563049349,1859.358503067022,1411.5534294827437,332.180146630158,7667.824285896196,-5465.107718192825,14044.98529070734,1854.7457649184578,1428.365712898302,334.0172818734749,7437.300135159348,-5877.345907243921,13473.069999010359,1866.1027964890902,1403.6476970958724,325.98174002665326,7474.315887546652,-6587.329418810116,13446.8876306353,1859.7027998587039,1393.9276470227446,324.2406978417642,7230.7833431423915,-5780.608570750543,13928.977704782348,1867.9930178467557,1386.174356968898,313.9024225762698,7203.819487116794,-6890.375939802913,14353.408014726343,1869.0305023370252,1405.4667640663854,312.4070205346281,8153.259588557781,-5411.060744346634,13549.277844575068,1859.7893207177806,1404.585400252097,320.19107491927633,7561.627656103151,-5653.971055570656,13897.271286411586,1847.0242230210474,1395.489742251124,316.49774138096916
7652.0,-5900.0,13828.0,1826.0,1424.0,321.0,7889.326621261505,-5988.071278582599,13141.749957569975,1829.6533264255052,1425.76524527007,328.70365900414885,7982.481761271379,-5186.3469584840805,12855.11281780553,1826.7752913623035,1426.6092225198167,311.1613837983723,7594.0382699436195,-5957.5438737713275,14597.525277810246,1813.692886616991,1426.400104291825,306.6006605287729,7281.0764592372625,-5944.432429870361,13571.564820228989,1828.0002245128717,1412.296637519306,319.2743116026262,8049.41021604056,-5840.056899056579,13934.602406845006,1829.2819472547933,1416.131152755621,311.40845964378366,7060.130843957676,-5431.500424190296,13805.843168143627,1811.5422607476535,1441.6465426423679,322.81556290032114,7483.920954217498,-6082.484567287622,13322.076692154773,1814.556133388982,1413.7311102115466,297.470748731321,7593.764327453714,-5013.353375235723,14058.258507724615,1818.5357518409728,1408.1635202774219,312.919674111077,7250.169054422607,-5019.97330731804,14404.576019382785,1816.861100391959,1427.5132634867061,303.54412617365585,7948.2323690494995,-6322.632869894571,14133.92994654361,1825.4562168707637,1416.2432049222036,307.6643423525354,7727.992792170127,-6193.56961662689,13696.23362578133,1816.5374464602617,1428.8409444897084,313.4221636692395
7608.0,-5924.0,13868.0,1608.0,1332.0,318.0,8417.67784768815,-5998.205529125221,13228.251074336164,1629.6835476609672,1337.9251284230966,319.15022524881095,7118.904821695701,-5590.30997273848,14464.959557074439,1611.7291697877492,1320.8554543431712,316.58855894979916,6931.295492588066,-5834.211191125414,14439.802075583628,1617.644701172193,1344.1924065672358,322.09946233675703,7803.546056563344,-6070.289804412076,13595.43175779654,1612.9521959139622,1312.7449979555647,321.0528969657847,6767.893248437615,-4738.545607459006,14363.146222950309,1600.7594858099508,1328.885357305947,325.49209001938266,7695.235294610322,-5894.141913505155,13715.890313464019,1599.0701375846215,1326.0860905873215,320.37078082452643,7256.624828451359,-6058.4169316806065,13499.180078148685,1615.2096482734764,1328.4546069236376,304.18675246301547,7939.605845549499,-6657.320204926831,15275.469058670458,1626.622479469618,1308.0155186715356,308.3063356162099,7868.8077610444925,-5963.039972501147,13758.606908569329,1611.4497821851999,1321.9086677273615,311.7683764849373,8136.243123527259,-6512.193497313225,13490.584445025932,1625.781284079127,1331.3187794063995,317.3772278763785,7676.8187362472945,-5660.7826169191685,14440.9411657118,1615.0811804174118,1322.1543885282838,316.11068413578903
7612.0,-5952.0,13792.0,1550.0,1186.0,420.0,6897.361927398539,-6276.287072581205,12333.98297100379,1549.5928233567222,1186.5079268093186,418.5524508947932,7454.337028315406,-6333.8598932422055,12926.592442681813,1555.5191307345003,1179.887653702928,433.6049302643669,7203.484166802309,-5515.698215341293,13607.628396518638,1557.4839264345578,1190.698857686747,428.53188917289134,8346.301214150506,-5616.793297976448,14090.18619180973,1572.904923528582,1182.703396295879,409.9391840331004,7414.622292610133,-6572.119184935145,14051.817942216683,1549.0132555231853,1187.5571124409264,415.9521913020383,7443.387227242587,-5569.921035089482,13104.128276445777,1554.5133342153415,1177.4120434027895,434.55696506378627,7938.984349652734,-6115.92256368491,14132.3749969806,1548.5022399220154,1193.102791050126,421.4166708208896,6966.281987190519,-6461.454993963164,13275.77520992314,1563.6573575461496,1173.7965077913648,419.6865083613633,8699.646420199851,-5584.305486597755,14074.040246801958,1539.041227546298,1187.6527993484237,420.11764476457824,7647.763233380978,-5754.073687811014,13802.095460792149,1534.8884857021849,1164.2807081439662,419.3347470460685,6804.560106530266,-6502.1736374039,14152.429470676809,1534.7575122602213,1175.427033199908,414.6738503178125
7708.0,-6072.0,13720.0,1698.0,1316.0,401.0,7743.005415852588,-6758.277484475106,13735.31159036382,1695.715222196069,1318.6927641127047,403.9915591444261,8050.841326442078,-6229.60812080341,13488.342211368752,1709.8890873103053,1312.6848720785097,405.1027561173614,8089.725181754999,-7246.089019795788,13740.726279548826,1707.7691639973477,1323.47414889689,412.03628981511275,8287.690482149428,-6332.198818596484,13231.230278930076,1693.1200345808595,1323.7781412959084,436.6385522725143,7616.142550930433,-5510.430839469718,13599.203591687421,1718.3518742124081,1315.9024209859244,401.8383030063397,7513.089941534049,-5562.218078371404,13457.682511861763,1677.1661816567064,1312.3380368320934,402.6233876199776,7942.421797215598,-6781.45002492952,13652.945128319092,1689.8231193860488,1323.436111897409,405.8809173857637,8710.301897614558,-6001.13561219804,14546.692491673253,1698.1314508208939,1313.65751424336,396.1261209954645,8470.390236994432,-5804.947170786981,14031.474677308906,1704.9843266153473,1331.2796236880715,406.4683941570739,7301.076573693516,-6432.762206659325,14459.676399178155,1692.3912501464647,1307.2797671786075,400.70689664539236,7024.961652156914,-6483.899055169488,14071.618425728264,1709.6955492981022,1316.1272521569704,403.0456789348348
7680.0,-5884.0,13780.0,1703.0,1370.0,337.0,7299.029617487278,-5400.508569028455,13213.609907742153,1696.5007673256664,1361.1609015288152,332.21550580098153,7353.829929914289,-5267.662898477925,13771.566097653582,1696.7964816477652,1375.2334672657191,324.7252858036456,7884.407066148756,-5633.156310539516,14470.186195242673,1723.3642219058904,1353.930835029993,332.2763908531689,8147.357608136296,-5930.638806957399,14658.771671888218,1704.2882882873585,1381.703083824538,357.53092665798033,7991.087935998514,-6092.420728036881,14402.268073291685,1683.2533646062247,1366.8340513910553,350.51624918968855,8322.96459698354,-6555.59497043467,13728.216762712744,1696.5218710158106,1371.8794576969606,334.9874135636505,7524.745143639672,-5512.540320489212,14000.705939143592,1713.7562423516376,1374.0072272625903,357.2217146519623,8114.959965884202,-5926.992548824963,13940.261272576374,1707.2581929089336,1375.173763046468,341.3854794287944,7681.166096809281,-6283.216684070376,13935.002705779183,1706.2084170158055,1352.017083583463,328.361611563346,7794.713628524492,-5830.567948079472,13572.223384449577,1697.2036894048754,1361.6831370088985,336.3710635358802,7568.340505398166,-5434.195683119125,14191.786062214767,1699.5218016154631,1376.7948669171826,349.9417077089633
7556.0,-5900.0,13964.0,1630.0,1271.0,350.0,8194.289662333771,-5941.930255748578,14080.169408329137,1628.0871500262174,1278.909516371945,348.24015312602234,7167.117812664928,-6357.18158546156,14133.170684311563,1621.0708436165241,1253.9850039429166,355.64343923177205,7519.217685253114,-6353.940580058749,13888.644502741852,1632.0524644738089,1277.5690972665714,351.0729419672628,7778.126420776739,-5723.410489820887,13213.6692190386,1629.5861541205843,1289.7614998565432,346.44819149479457,7653.997122702253,-5305.200424726298,13478.276578693407,1620.1779936433734,1277.5485363292623,357.2198734732845,7041.317659974289,-6604.240352982993,14587.261551819372,1621.7779032120136,1267.1063908931458,344.8166060494241,7384.014245568864,-5766.133113794542,14126.65656725253,1625.5167525298893,1274.0308764078388,359.58173522726963,7392.570166182675,-5676.10574485899,14185.939865615212,1643.043826590547,1277.2280784175412,364.6169453460517,7471.201958985454,-6148.757089497378,13456.676651563574,1632.9677178897678,1262.2552615396119,343.1632011542747,7743.52969714784,-5357.141910511068,14349.282549268468,1659.1129595709049,1264.1799764384793,353.6115054249594,8432.378806945348,-5798.926195321616,14805.299855553762,1625.130312871351,1286.2877498243959,349.8408925999023
7540.0,-5936.0,14052.0,1541.0,1221.0,363.0,7942.563402123105,-6109.628597857395,14496.816742803365,1541.9271902729577,1221.9177678280212,369.6968606648557,7527.388366486225,-6025.6297004094895,13357.026745659607,1554.8713891099078,1200.7597412958007,359.8025338535824,7622.785031635163,-5968.846285110957,14344.57675595231,1535.8415860591508,1229.31062993061,364.2517104683119,7432.399774246894,-5510.080951780462,14238.828820287774,1538.0928953696136,1239.017805274087,342.4353735393643,6780.450499871303,-6903.768135974051,13822.493576813817,1526.9962411960685,1212.245674373934,357.1518120253233,8018.134085803436,-5307.4828724400395,13696.64041295924,1545.118212264812,1219.8588379642192,348.56189568793184,7960.321087110879,-5988.782711223902,13418.514674530594,1532.6074103501428,1224.1897414211744,366.2924506136582,7992.947726518679,-6160.695303938287,13745.998590424104,1546.9066025199456,1225.3337503003386,360.84684258427734,6996.662167140209,-5884.625624387091,15514.31769045678,1543.373417080179,1236.4997753596488,372.1733084796074,6573.53879405507,-5858.964434815071,14051.869983234159,1552.6039451344982,1209.4280124517784,362.929220167163,7496.916358699693,-5501.417279573302,14011.023172791445,1540.9088808262054,1232.8754373303252,365.71936092022986
7700.0,-5976.0,13788.0,1535.0,1296.0,334.0,6666.843518112,-6149.760904252761,13183.353114749845,1532.4818780681119,1305.2443957462692,339.90672381263624,8862.837195310585,-5942.470677411712,14282.255814244047,1529.6112078984124,1293.2465724433,324.03175674963376,8133.246302911696,-5050.005505830795,14271.161438317386,1542.2875844329976,1302.9757685120205,313.1962751610398,8217.340135059876,-6045.497838323207,13819.050744970617,1548.44858588516,1286.7332717438471,330.45226044795965,8622.57631197182,-5502.85351771926,13969.728323177804,1523.2865598814349,1296.900462270657,331.68079322268034,8063.043364472442,-6447.878475829831,13955.624393230473,1545.0802175733274,1296.9514353819511,331.29465695525096,7958.41343400587,-6093.243414090173,14104.421863238562,1521.4350128817464,1296.8541404342766,338.4139535592213,9143.145106303991,-5512.829577715532,14003.51704370314,1533.2998974132495,1274.5396150560616,332.40107208895114,7035.263752405598,-5620.454276279827,13882.032091487636,1546.8479643889066,1303.4893520821304,321.46365295667584,8508.399846025437,-6085.218701935276,14263.807097003377,1542.560297172308,1293.442527599873,327.6028806208485,7687.177827047536,-5366.555306694508,13971.761308251884,1517.5457599446308,1306.6503267920718,343.1274038025546
7616.0,-6028.0,13812.0,1505.0,1281.0,389.0,7608.165213373721,-5538.132790212071,14141.601990095976,1502.0245875756718,1266.6880548937108,381.9943092335892,7174.328903401403,-5646.014530567197,13827.728308272191,1491.5360219278523,1289.0208487421896,380.17517950497444,7768.594959553541,-5531.468835936901,14433.178925903772,1502.5153370645633,1297.2568802663018,407.31371997547103,8411.42145887759,-6330.183905399128,13742.073742766126,1495.3916758380508,1274.0412518624375,365.88810164995976,7705.858314983367,-6672.994217221301,13982.23259825767,1511.2605251613359,1284.0045491392707,391.5562228722624,7356.176348572421,-6412.319075895754,14120.60077561426,1507.1429456849853,1281.4111230195977,370.6365765835671,8320.090404312397,-5430.743495105097,13507.462318942891,1496.4314873207327,1295.3106388095955,413.07697063627546,8112.162495463523,-5614.328244486391,13768.838281847078,1491.9658538980036,1276.227038682537,383.10055591161546,7503.144840175311,-5942.14191260083,14109.76301560347,1500.8623755375331,1289.2913313312592,393.00967682219573,7642.458349948546,-6222.158941301421,13617.948070487184,1498.6513436837017,1263.3582307659747,380.8300888511445,8093.495559139792,-6790.2771632050735,13945.676429914423,1509.9533002759542,1280.1314523039207,388.09088760115327
7584.0,-6068.0,13724.0,1556.0,1313.0,357.0,7605.63042898296,-6026.5049991984415,12719.473108306061,1543.3887215190998,1304.2589953926404,364.83809556625425,7173.26393826502,-6114.911529241306,13764.305990031693,1561.058897743126,1333.841506577066,352.99068344155654,8135.3634197804795,-5303.925038727906,14257.860733687465,1557.959962339774,1332.324241542574,350.5722347010995,8213.471340542694,-6283.5950194628995,13613.241786124154,1538.3047273416742,1310.2665613764334,359.9261659046112,8683.465262301972,-5912.455535394573,13820.10416180091,1573.2332669535235,1320.9625237515052,356.54467422673423,7368.0446141013,-6461.25646663445,13561.973369646981,1562.3227902147587,1320.4196348219944,348.3835900737008,8219.524624633079,-7018.950251711327,13365.499584082983,1576.5535758325984,1302.9190459496958,352.8085496536246,7249.01975796843,-5250.7834111006905,14486.421153536416,1555.5206681843865,1308.1729818588228,355.08052938728133,6909.261103330458,-6403.649093614313,13789.97009791593,1536.8421865358478,1328.619687018869,357.78716462319034,7468.9669331593905,-5123.795986144102,14375.389065694717,1542.4522622345767,1321.7009947216716,355.3178607825282,7000.2961193404335,-6275.050680789124,13179.985007522931,1555.4984839204212,1317.3045122668436,359.77844310366106
7580.0,-6104.0,13736.0,1553.0,1402.0,285.0,7506.631513008347,-6589.481078069098,14137.607339492297,1555.6485837686666,1392.8710606519842,304.68530255786544,7859.978031278962,-6247.837946067785,13878.29286804556,1555.4463941965848,1403.7923231788266,296.85154323067604,6846.104221919141,-7314.8879919452465,13330.862235547847,1549.110323327733,1407.4724350020833,277.337974622834,7617.814633405409,-7045.787913408953,14123.98889822096,1556.8349285129084,1409.6246249370074,283.19255591392573,8249.44905885448,-6525.216613356719,13759.815557249043,1563.641369955755,1392.7359403182477,280.5610469181813,7276.145394542989,-6932.085787855839,14097.460897449857,1544.7918690871813,1393.1126353861755,307.02538962019116,7363.653783268055,-5544.065993635627,14321.123272330182,1557.7343510708836,1387.2252629420811,281.80008988894986,8129.498115209541,-6156.769207702331,13687.929672179778,1568.5246129595132,1381.7056384996113,295.8365919960197,8291.644413475155,-5642.7971875418025,14218.329455673573,1557.8774212567448,1396.9399971951684,278.55806737827015,8722.487984752417,-6380.813725489751,13606.671553143811,1563.960362424086,1408.8744349864128,294.24010787419064,6912.866873918956,-6731.850395664858,13892.56122808694,1560.7707029091664,1390.595620279208,283.1061735056991
7652.0,-6124.0,13720.0,1634.0,1374.0,314.0,7408.934159622587,-5616.322615691429,14419.714811135545,1628.3511017826995,1394.705795012196,318.6224195638776,8339.187957044249,-5662.787220762804,14428.737264039966,1639.1400844022828,1373.8064658837739,306.2296005887794,7582.693075768678,-5375.138819252146,14068.42990708601,1637.7679688257647,1370.7036819213547,324.22968020720623,7044.961867304726,-6476.025434210192,12702.01039942472,1635.1914611574052,1373.2273331216195,312.71731855890397,7187.687311688246,-5213.894348552235,13552.967490221012,1624.8545860449042,1383.1905575168528,331.77066422194525,7914.719017596749,-5766.594372275296,13860.674109613103,1643.5315982752668,1364.7503895385137,322.44990947118487,7565.638937062595,-5785.734066424063,13394.294837378999,1633.8106569174074,1383.8983911534242,332.10286521683076,8329.996248714355,-5729.677635038063,14209.51374883792,1641.6150823073374,1374.1080942881176,322.7247375159672,8119.10791249426,-6176.87540570704,13418.773814440314,1652.2216818374386,1371.956684003424,305.86939970304945,7004.731172179381,-5504.022463170207,14324.692516389076,1633.5919601865687,1399.8390036708302,320.4991659263248,8304.673377272191,-5885.028548196893,13635.38999868223,1631.041010187004,1368.9999108830423,314.8358599490513
7728.0,-5996.0,13772.0,1635.0,1374.0,325.0,8219.688027954418,-5799.985019297513,13323.070641867565,1625.57978961853,1378.6912961274816,322.16264867786487,7475.590235116961,-6183.154407588324,13676.607232917928,1636.0384110829,1372.5973124071008,302.52958243384904,7265.175459018747,-5144.5791143019605,14063.882078632274,1649.0931979722618,1378.551769408152,310.22161782253454,8401.508887729891,-5572.2473878163655,14193.486521905012,1634.6086031348457,1369.9342955859279,314.7730403955333,8000.865504390539,-6622.452787854147,13841.473551264911,1645.1673891492453,1379.3265607028025,313.758124080036,7603.175053441095,-6030.322950424991,13543.296841820198,1641.1855144682434,1355.459454091357,328.0505392827878,7993.416272294889,-5057.8625161416085,13985.703913048827,1625.940500507484,1360.659769411006,313.76662941666797,8427.632524381013,-6153.620271174924,13083.639436025322,1638.468403416478,1368.8672751636586,314.24052829435675,7617.859386882687,-6027.561669253361,13730.636992453421,1626.8851463820158,1373.2758544008918,328.5656719461077,7792.240055486152,-6804.976529226149,13235.624759751598,1643.439201415748,1376.203767708185,338.4197905279864,7320.298740216661,-6125.2976709240675,14019.798028826159,1629.3959685572215,1382.670754170052,303.92984313619763
7612.0,-5952.0,13764.0,1573.0,1351.0,336.0,6727.326470168542,-5767.731572155867,14124.748289494457,1579.0170078179274,1365.706865281491,332.6789338337362,7168.628501928389,-6325.668959433298,13456.36921841018,1584.930798929622,1340.8458133183653,327.18773128230015,6656.735194290244,-6152.069859089924,14403.802314971052,1572.7289925462385,1352.4937709264525,329.3303579443989,7740.017767348992,-6362.473831380379,13569.298164493406,1577.8525564145052,1365.8323948384595,329.90588878462654,7751.057800509281,-5948.3726463126895,14445.620147981168,1599.0117001650035,1341.3255374725059,315.6720567295765,6898.7508777060375,-5809.188423214294,13986.514501621306,1585.0247563838307,1357.4372586851978,341.93386245576454,7558.331533328052,-5994.405998265687,13347.340982511007,1570.6007579113516,1353.9206868232284,332.7032205591673,7463.216841100341,-5766.526291698794,14005.834172971043,1568.6209538519827,1342.3062485128698,320.60973467124944,8799.487150289873,-6155.7978336260885,14520.12320611047,1575.699815109455,1335.234546661994,338.62108060430666,7603.54765104519,-5366.28741037003,13393.829782110648,1581.0247273892048,1357.2379736419398,365.38490992556535,8146.805654520645,-6056.693311174348,13179.819794082952,1563.5094933245155,1348.1093021193628,339.37442161971654
7596.0,-5936.0,13716.0,1478.0,1300.0,443.0,7724.312320089511,-5255.093138906545,13487.179347768935,1461.410205121497,1302.961018016096,452.1640144779178,7613.705588734523,-6118.643106653976,13498.900961131674,1477.2820117605231,1298.7542431494035,442.6579884308376,7432.393142940785,-5988.44275011422,13355.492673265544,1478.1431478993147,1283.5519942949823,423.4628187434993,7409.396553473982,-6186.085218189987,13516.656031325123,1489.321211421505,1299.2462374982804,426.9847009652779,7780.563802251633,-5755.745393901442,14358.859642719446,1475.0921694159658,1303.8929074060811,448.2071822204823,8020.6600498969065,-5636.555159382755,13887.154153921576,1481.1806965801395,1310.203584210759,435.08486859008696,8098.841858087099,-5649.7919615308,12922.388211866339,1469.4364283819032,1273.7535212712357,426.6913350537607,7706.630678260103,-6700.904159467895,14194.210860947927,1465.4123712632343,1291.7436478320146,417.9291322987424,8127.535507114271,-5917.999121821374,14388.981747888294,1465.5126407629102,1298.8818685204133,452.2538777162613,7060.976711176325,-5696.333937773997,13998.50220599056,1486.3652004685805,1304.8639273322365,440.7190058784367,8043.179048532863,-5090.660668408016,14020.926748630509,1489.1793592846873,1289.3310610683295,432.1722127856212
7648.0,-6100.0,13800.0,1451.0,1291.0,428.0,7790.890300659304,-5463.258515407765,13731.50050259083,1439.6223471798778,1304.5662272403688,438.5840774047814,8565.777582301042,-6314.935896502866,13865.043212613082,1455.2222852606708,1291.8956871125367,440.6218262717114,8046.124900412979,-5908.8926523525415,14144.213926661132,1445.9961436040232,1297.3896666899275,423.63726288501823,8491.675098764208,-5748.122692045966,14276.88847260353,1463.376865466704,1286.201430816637,440.50778953405234,7149.770244613944,-5797.038335365709,13986.75730946042,1438.406131165564,1296.6543649902426,428.68748912298594,8337.727303729618,-6139.525549200372,13560.931786169573,1471.6199030223825,1271.8209623053056,417.4723349203356,8446.32629708727,-7108.958460672431,13807.664263929133,1454.534162134421,1294.1612785739915,425.54170257801627,9229.545088989136,-6053.397446468989,14035.264400683842,1478.4605026526444,1291.8197498753502,413.0802457983801,7614.868120900454,-6241.98605864298,14220.940210158742,1436.8927546464738,1292.8597266143113,431.90192232775337,8283.378456802633,-6174.664287991773,14722.870207776603,1458.0958311274517,1273.084655020042,428.3817076637882,7537.157034569086,-6062.82650469653,13056.582194759081,1452.715815831753,1309.968795168924,435.6205306654971
7708.0,-6148.0,13736.0,1609.0,1375.0,324.0,7481.706310104483,-6412.036021674685,13665.48147471458,1617.3889509837838,1386.0787776383881,336.297558306338,8052.715512346787,-6320.6991116882355,13185.101659591755,1606.274794282267,1377.456785847977,308.406758590838,7777.52757880894,-5768.881850656073,14106.859251569454,1611.7526270331484,1372.5132967572538,325.0072401889087,7934.224128272142,-5564.288463096087,13145.332139272976,1616.002230609748,1380.2215209563426,343.488667679037,7787.451007372834,-6017.174813141551,14321.252710753277,1610.4071043122833,1387.6136695009352,325.11162845124807,7707.81306640056,-6367.275992754007,14476.152837468757,1607.0314790728844,1368.1652638619116,336.52036559362017,7401.068757840235,-6400.917674455777,12912.713376505728,1607.1434516806466,1387.954222533202,324.89517785179635,7348.564319631752,-6639.796169032411,13656.927660808426,1593.8904613093903,1387.8170612083338,315.79656455161205,7998.2478763012095,-5554.547611553201,14011.382470071692,1623.4825988859848,1382.1693876761417,323.5191022312522,7306.238520137746,-6310.243871931453,13289.977668395011,1604.9264650532891,1380.7035502681492,333.48063256575074,8912.856519684152,-7044.289469944137,14692.469357328537,1603.540581355136,1384.4562297017937,330.2316880115119
7732.0,-6140.0,13844.0,1762.0,1416.0,286.0,7361.13265041276,-5605.214112575798,15040.017119900434,1743.7164709687293,1428.1369897892666,290.2038727885681,7780.008069416545,-5457.18453973277,13287.393336548195,1770.8375080607725,1409.6775331781334,282.9844839753885,7843.986813089369,-6168.856932229729,13911.860228935617,1767.698422636615,1429.8678334059962,282.3062147287966,6578.080544027242,-5719.019001651444,14786.766248138807,1771.8890343961523,1432.3031171837738,287.0077544699786,7625.884518436937,-6090.62252785715,12936.282711650296,1781.7042414982832,1409.17857293194,286.0252698519173,7338.7832954936475,-6035.897128007892,13327.369395507512,1768.348254818767,1417.037456683782,274.87819972964127,7798.982917710349,-5125.491336738379,14230.459032016226,1759.3963386198911,1416.3028351251182,293.0390263878408,7733.029014393752,-6358.78732293054,14056.428834967393,1767.2826022311303,1418.5027859781003,288.5200368567067,7635.813097990633,-5734.070941709357,13604.47621820969,1745.211048954162,1430.0868447817497,279.8109697432882,7581.5459841746015,-6829.958356000463,14890.186254782988,1746.9376483369358,1433.8268902620734,296.48146958080025,8447.295353513733,-6442.925652607208,14186.81261183009,1764.2562466922307,1404.4001827951586,277.46651741039614
7664.0,-5884.0,13736.0,1638.0,1453.0,345.0,8252.822997641586,-5612.3071491561905,13799.033435813468,1622.2843227028882,1449.7226215784715,359.60476376614076,8038.352298445569,-5806.705104323709,14597.724089588277,1622.9043806274044,1458.4417167210918,323.86938294852854,8579.13321404931,-5560.981909822532,14109.249343798574,1632.6821074061806,1447.3033699399302,352.85356184255846,7775.480939678516,-6371.044048529124,14521.180878124724,1637.5038900974737,1482.9655079279569,344.185586238516,8441.453035880471,-5974.805382574687,13798.5253867066,1605.7639061755472,1444.3555112583367,342.9562435343695,8277.39419323202,-5623.712271132823,13003.17845454172,1639.1131696986083,1454.7890540265132,335.6273793427074,7196.792083820141,-6100.175225359904,13889.75150907051,1635.9272638020946,1436.5448877934443,340.9510945824868,7026.81536658169,-5704.366363254842,14584.185377359847,1641.3097936132299,1443.265476794737,348.2225542233693,7552.42701762654,-5375.64343646056,12824.024874010309,1641.5149183609858,1451.832037699758,332.8371377661131,6915.020394534422,-4919.2177206270735,13290.733900852521,1644.4796649691702,1440.7778419322742,339.8358582669477,7346.2703155978625,-5922.289659552774,13832.39514231353,1641.9638257992617,1453.4186521170773,346.6649886465881
7628.0,-5960.0,13728.0,1440.0,1408.0,386.0,7181.822605950212,-6556.897841955027,12892.143014688918,1451.337843941383,1397.904179904726,382.41417924963724,8208.31522232128,-5314.007076312228,13048.468424639326,1463.3782048435341,1422.3997579792424,387.5954644673806,7559.584584929692,-4918.46489960195,14618.680130306051,1431.9728140746881,1420.8679964485325,394.3345144519619,8413.196301915053,-5586.073762918617,13399.414507536054,1438.1911290879996,1385.9357437671888,397.16374606111907,8218.166819357726,-5948.953533522321,13683.527218524243,1446.6711288390181,1404.6848214080544,384.05908113393656,7436.5402130868415,-6676.563153988851,13447.829823087806,1428.3897934155843,1416.1649444710217,381.226453842096,7846.434330575812,-6786.225801996078,13762.815273487844,1428.8164359522257,1422.1294264544824,397.4120147710416,7767.3250348865495,-6464.911243923149,14439.357879674788,1455.1172100090987,1406.920544551058,379.8166722701732,7544.025330561068,-4986.163317265445,12690.135886191856,1426.599275224145,1424.1997837700467,381.83820352067306,7123.808168862932,-5619.091683496435,13594.560125852355,1434.9583395390816,1398.7694583007456,391.6786419833151,8317.028879737178,-5318.044411673623,13843.696832750333,1437.2115566459238,1404.5631052264769,384.3844890221723
7548.0,-6124.0,13588.0,1470.0,1382.0,373.0,7073.866648177211,-5946.143237752036,13368.623286844686,1469.308813622262,1393.6621433092073,387.96697655126394,6995.642933646955,-6695.010825379798,14111.173108612684,1479.620405393952,1361.0822234152315,366.5989599568121,7983.966138208706,-6435.867197773224,13186.229654858413,1464.1219677165443,1369.4083475277625,374.33022558699406,7586.311930518304,-6100.157295090587,13075.045630314176,1453.1802616756122,1384.0015096275351,386.2547650833168,7989.279599350593,-6525.653135255313,13288.62481960439,1480.9158656704637,1382.2465615918206,381.2376753377234,7433.283138705954,-5882.043611744479,12926.682248863985,1488.980282237916,1395.3100873280887,382.3454666772289,7752.145600791736,-5972.07554568007,13376.638956582727,1459.0033077144778,1372.5344849408793,372.03753210939703,6902.905402752661,-6271.862780691648,14033.534731553944,1470.8695198575365,1376.565323562531,352.46847108840274,7152.276514182473,-6833.114850527783,13861.083936313247,1471.1581222433645,1380.9155003297772,375.76912843310424,8001.842868446672,-6767.149504059289,12580.076463638443,1470.536200953968,1395.5453182300519,379.9738474012717,7468.290220671416,-5604.90871551265,13993.806511691284,1469.284529962451,1397.1493606258418,365.19102053839924
7544.0,-6196.0,13688.0,1729.0,1407.0,320.0,7770.380971707566,-5350.634990889371,13979.674347511856,1743.431430275031,1419.0584146571937,326.0452738175744,8179.798926717603,-6454.768437549169,13189.080577127384,1713.6698572736186,1413.519711390213,319.06231627598555,8235.64202818638,-7167.384302398989,13105.219660611008,1740.182906154132,1404.665327576209,339.84446276968583,7636.964848651403,-6964.883137156575,13417.115921084094,1739.564100262703,1396.359158582833,318.83100853183663,7860.315425130228,-5749.656241302546,13695.858150422097,1730.3846113677382,1412.985892556351,334.6444769594127,7372.787656777822,-6085.331427222282,14076.77471714999,1715.8732934848365,1409.0899611344519,329.0629127588699,7735.954938437228,-5760.665921387316,13690.731382550795,1731.985716066329,1412.723570897792,320.28845888410075,6821.2767876017915,-6033.294463830932,12606.099100024167,1726.930901200974,1400.5756068326243,315.5021911247698,7408.916692228222,-5471.620911378115,14054.886403413706,1742.2138689032618,1405.7982394897417,329.5997546911878,8056.88671452728,-6511.219022674457,13458.812776519853,1726.172208205139,1401.8177361555488,312.67198058005386,7523.888370753476,-6305.523597162841,13716.70411444395,1721.260474776749,1414.924397557032,321.4349179207089
7572.0,-6116.0,13608.0,1822.0,1418.0,351.0,7312.540541781287,-6082.251412369725,14036.202964098075,1815.5456171044534,1412.819018887135,371.6569831158173,7972.526629271512,-6147.796973872269,13830.773218211765,1810.2120176274595,1413.3689894407632,343.3895057683992,7756.534095963112,-5996.222763016214,14193.011537709606,1817.582342287675,1420.7378314693935,356.35311739107215,7209.85560603902,-6012.214747865011,14383.004147915775,1826.6169469342562,1434.4756374243952,355.1683110010689,7723.998792848405,-5651.532853603228,13296.552657884627,1805.4179916292699,1421.657176720134,354.52572293203565,7046.94315400737,-6116.184025128429,13288.632377358643,1828.0826030243722,1421.906780582027,354.905405612574,7184.00963529651,-5481.806946573621,14016.202108423182,1811.4164234622062,1415.1390937760043,330.9241348631095,7169.125411487296,-5381.366398266209,14554.13532819455,1831.5787589252532,1417.6693986768469,355.05618233866005,7614.979984444548,-6505.948416268268,13302.381725755055,1818.8357428521585,1411.1123257895085,349.5308209520994,7236.2025776475,-6302.897490457837,13679.006713158567,1824.3747205619438,1415.5687111509537,355.567375500598,7961.094968360367,-5464.324001082148,14339.254566856105,1819.6304576705745,1419.1312715757929,324.206350762891
7572.0,-6020.0,13612.0,1787.0,1413.0,353.0,7726.303527771184,-6549.255051121884,13915.44131058037,1777.341019906245,1412.3030978021297,350.8531553188768,7604.783986209463,-6105.3840633496375,13201.740175995004,1792.3319201821607,1408.0382298710188,355.59085715408014,7430.889616030291,-5530.328093066982,14925.50477723788,1774.5050695900547,1423.30795719756,351.09388588904426,8271.540603663514,-6255.586006173895,13294.467131329044,1774.0732953103982,1403.0565195637632,361.61386884788124,7020.084137422671,-6785.7026742484095,14044.74490228863,1787.019233879678,1412.547828127117,350.07471905636834,7770.665209135112,-5629.828630579759,13648.127567064106,1782.6069091832774,1407.4555138256987,369.9378554711555,8104.320762718853,-6824.357707120181,13005.266985107435,1798.812010297333,1433.5440741597781,346.2878656853958,7075.010820145743,-6454.066939861554,13717.959893862957,1782.9538226236991,1412.5507118453443,332.82186716409353,6988.953148045405,-6489.403426230624,12939.464450581656,1774.0718368773857,1407.4380062940822,364.88584121193753,7943.056590531842,-6056.680808199565,12873.297389018027,1788.1385420143445,1405.8532814579064,354.5505848203243,7906.886403635275,-6238.169840848118,14147.19641709632,1770.2813143374606,1395.3995603521096,346.3640754135286
7660.0,-5976.0,13676.0,1678.0,1372.0,324.0,7726.494117957147,-6980.440020146077,13966.795679297767,1673.8429730129212,1375.5917162907033,331.4872585009599,7448.891303458495,-6121.35562034592,13867.21389950467,1681.6275860815995,1387.7504919561188,316.7061817318763,6197.023908649098,-6410.429646929877,14179.335924252628,1667.4674321270431,1382.6943469715177,322.71699854514145,7310.348998608588,-6467.740068177193,13920.71430226084,1686.1783217741072,1372.2377438712642,307.07193472478303,6840.5095084942495,-5729.210746547867,13524.339989510563,1675.1558680762348,1365.3059641928644,318.258890713901,7064.365583193265,-6094.858469356545,13480.880787082751,1686.3558216780166,1374.9182107912695,313.33801236767414,8157.201809954582,-5580.4501777517435,13404.847248780652,1673.8149782885205,1373.8556414798434,318.07941696538165,7468.328498394274,-6250.379129069192,14051.64564212598,1689.4284502024846,1378.951714932744,316.13460015926756,7824.630324363009,-5691.199437134881,14154.83283389797,1668.6015564427298,1380.0061912635433,348.4744154900585,7363.838573748193,-6063.218439852175,14951.707829504614,1681.1745469337218,1380.6091535870878,329.7911706132153,8282.688713178928,-6337.118531355722,13196.625835851259,1687.0482161675395,1386.6254726754903,339.9621266809439
7700.0,-6020.0,13696.0,1573.0,1340.0,380.0,7116.213376924048,-5813.2782285863095,13525.28572496812,1567.5385501819585,1345.3459921464114,382.7076429289238,8293.066054583589,-5795.921414893262,13956.758757135367,1579.2575519161367,1349.8580629453716,362.9473651938577,8245.01165421183,-5947.193523287607,13578.806649550414,1562.967837632997,1311.7855220924368,388.6511030342041,8511.423749408845,-6375.3241118700225,13514.58499802842,1598.7608117572113,1348.4526992242018,370.46583184675393,7255.717012295362,-5812.959819199494,13657.478984384696,1569.1873427008538,1324.9445109345515,371.2538654481613,8311.772990371655,-6357.872889045041,12927.858531758153,1572.18447766414,1351.4748297236372,388.87058726905155,8360.16064155193,-6606.116111797306,13735.622662953927,1575.9800207320725,1346.9958288216055,387.60862000376466,7979.626889764679,-5218.18565584267,14168.903142207866,1560.8701515929104,1338.4561621452206,380.17660415378776,7951.02161387181,-5824.122335906544,12601.26252266653,1573.234863747838,1340.6129244623562,402.4559299214959,8149.503572207337,-6479.375377515542,13439.179171652195,1564.0801100069607,1342.8113646241513,378.9230046502856,8130.2442494230545,-5767.680586466008,14126.375362552197,1576.7193543239866,1327.822748264798,391.8391730123079
7700.0,-6132.0,13856.0,1634.0,1384.0,359.0,7425.844737340874,-6341.722982463179,13768.79479452035,1619.9119469288764,1358.812262246757,340.41912198713544,8587.582460594254,-6797.035096764106,13535.502802512863,1628.517007070301,1380.8884162817817,360.12934939465805,7623.123864239179,-6254.002297916294,13460.920715628452,1639.7663169113173,1407.5228377454919,356.223065914927,8008.759865536153,-5889.513367337399,14105.98801216814,1611.6896355721306,1389.2633868984099,352.16799683164265,8124.315709446246,-5823.540390132448,14058.741652055465,1642.2734338708165,1375.910538759378,357.31411282392764,7816.069195538117,-6847.6726848868175,14936.058998366225,1627.2230138024306,1416.0369574423582,362.0495017579042,7382.430309355822,-5569.779065956865,13920.514908993979,1633.0000533773898,1408.551405885785,361.1695570851584,7148.968965430086,-5848.113160415437,14119.868860982206,1635.648995899832,1376.3683108935884,350.6787874403522,7482.476910551324,-5884.22153010788,13088.710037202669,1632.31065606666,1368.589294102156,363.7052550817222,8270.331152227764,-6084.526964151813,14278.578835763106,1635.5539262803416,1383.9951557883542,366.0264884731209,8224.097216828552,-5979.264846556181,12878.32348530895,1642.6746827338345,1381.5393102850921,362.1771496162652
7768.0,-6016.0,13788.0,1689.0,1393.0,324.0,8169.3673979738605,-6013.305897513181,14171.786765972276,1688.3574518648838,1387.1286154906259,349.2800723184416,7430.986800404449,-5950.7399582036405,13808.776341122088,1685.4124679097995,1398.9390367293631,332.8438713097089,7002.772944723245,-5052.045694577265,14310.517353092651,1674.5370514224744,1401.8785761705635,323.7546957498934,7709.8187861675915,-6025.226971827204,13725.406383928905,1682.5646953430944,1404.8348993488296,330.19703215207045,8003.83736418107,-5617.367915383339,13525.895955665239,1682.4921935190484,1392.4990725436287,316.1437297866167,8593.206757362519,-6023.64349918044,14088.257255344774,1673.7414356359811,1390.6984411258104,317.5077906681134,7269.288721794457,-5318.618590413595,15006.08680762396,1683.7137105336524,1402.4171184243723,319.90409504836146,8256.142232703362,-5802.070961165862,14138.263764135594,1675.9201787755821,1416.1311393661897,329.5288804104297,8290.05506663796,-6037.892662726535,13990.928142729092,1688.6411972928456,1381.7095264299494,325.517099662958,7585.240646503522,-6394.654760573026,13303.657559530911,1687.0449514988782,1402.7113241259879,303.46618454206106,7993.61297238753,-6057.475099088627,13474.123133731622,1685.235929523123,1369.9017162066568,323.2867149101621
7624.0,-6100.0,13808.0,1678.0,1362.0,304.0,7816.000731442414,-5997.12288059631,13856.6157407586,1680.6556652141464,1371.9668898067991,306.7154475654426,7412.060438073257,-5511.397404383148,14886.288839060311,1688.1751797579889,1373.2327215655355,301.244571027317,8216.69727611426,-6640.674675276589,13598.233943077621,1677.4366678870406,1360.612162366423,295.16220995853257,7199.777946828769,-6749.778619434457,13944.035175958106,1679.1608941342295,1370.5730997843332,312.55576117550083,7649.045579476047,-5709.147632232889,13562.984723902866,1684.4621841540984,1344.9032351161277,287.13329123509396,7009.608398172897,-5637.165001948164,14374.04195990097,1674.9085523976894,1365.9768692505158,298.52382447416284,7031.770354451866,-6058.3338675449595,14444.861501066858,1667.3312771118642,1358.7212877400375,301.8432634887347,8228.508795849737,-6119.741443196316,13198.933122946173,1679.3785296324677,1390.569271928542,290.8806276750095,7847.920547847793,-6286.601290671197,13760.195319551889,1689.4826765717307,1372.8212950167783,307.7253223536179,7727.537191237343,-5355.412299761734,13502.217600233405,1667.31092942961,1379.9134697125069,308.2404294827816,7050.556404817611,-6307.273146436733,14326.700125552441,1669.1389124655027,1359.8300156038965,316.94398340987505
7556.0,-6044.0,13836.0,1678.0,1449.0,263.0,7701.7672982671875,-6769.918024055011,14397.110806355104,1689.3488949910452,1448.5821246922508,280.9484869640057,7099.898743134686,-6004.516608635247,13814.307417600132,1668.4004161797989,1441.4663875706617,286.65003176665493,7214.975230138594,-5956.801593282451,14344.778526837055,1664.1368252993086,1454.006816310309,260.69721191429613,7634.341142583464,-6942.530766980425,13649.855523581486,1668.1770558123721,1452.968423378792,257.1204084238941,7910.306182418863,-6205.4384685602245,13900.94062027211,1671.1888131639325,1461.0000108667266,256.45677487561835,6549.117764667259,-5167.388060938207,12556.87850290587,1670.5136962196104,1441.9513144158857,273.9933130362901,7998.060013808855,-6498.302852016448,13473.703628764404,1661.4537051886202,1441.5133270095678,266.46451985153834,7149.965588108629,-5537.902379845419,13224.323263184231,1655.9533430813517,1446.0660486415263,265.63025035091056,7316.965966745241,-5728.124832228691,13802.6543667124,1679.8762505097757,1439.4150069107945,260.3681255122339,7663.197982945174,-5770.904997853462,14838.94281954871,1679.2094444196434,1451.2874591431776,264.4668099329427,7800.460940659158,-5742.780266391609,14130.99421080708,1676.118800859231,1445.6232764029126,259.04013232658554
7584.0,-6076.0,13728.0,1690.0,1487.0,273.0,7778.145646688077,-5826.405472340087,13819.938992557867,1681.6247040922456,1483.760185494315,281.5249408781762,8037.899357930916,-6644.56792555033,14108.191325956655,1707.5719840584147,1494.5717188920594,280.7281334204097,7593.659739699314,-6537.428389421199,13672.674542302153,1702.3923885835468,1493.238887781402,265.20004787613334,7271.411453823108,-6603.758822814101,14173.178402790314,1681.591276045976,1480.5824333953815,272.8679823155678,8045.5870800709645,-6342.904568679951,14010.132208872752,1683.8088090331485,1497.0290816531633,274.8854543339812,8297.227340608439,-6970.937415969605,13383.716051835427,1688.5079053566187,1500.6110053183113,278.5637724548915,7816.668561651403,-5606.5338378208635,13465.11858406098,1692.1470028497147,1487.4303449438228,274.66024908906024,7511.593802209266,-6168.57092162211,14475.507855864405,1670.1966499226278,1496.7172287090164,260.6695025281651,7088.485371253658,-6739.243173269488,13951.89350028982,1687.2278996895043,1476.598949895782,282.3269015488202,7949.315894515873,-5865.94502103135,13015.879625955558,1693.1478498051645,1493.7217171222353,263.8884069184633,8032.23653508181,-5775.593933195805,13645.72640935403,1673.89493628789,1497.2479202404927,256.6313945760081
7512.0,-6132.0,13780.0,1756.0,1473.0,190.0,8080.877811969613,-6352.102216168118,13052.864527768643,1765.3866668382075,1478.0845115869627,184.29603128626516,7943.58081954991,-5279.9632919711075,13609.339862803965,1757.7462959912114,1466.249961718311,184.43985069850444,7789.015679836875,-5809.411000947393,13897.524528330214,1750.5517499915616,1487.5196602824853,182.69776928979445,7587.838048155829,-6649.520595779229,14334.96073370025,1742.7969124239005,1469.474974316347,183.6165140793518,7174.994756437274,-6084.868647097599,14414.407923930095,1750.8526774770353,1477.8684760413678,186.46361009777164,7639.121560534811,-6189.292329986945,13677.795507176976,1752.5046499738492,1476.1754415590233,202.0811912759886,7524.417255276175,-6044.303787090067,13983.387831715201,1743.928365015202,1463.3411181065123,179.2542317703943,7419.52260593077,-6595.599082869073,14393.677778051919,1763.2622969681238,1471.2914478201237,200.59439180286856,7694.666957900148,-5719.835880520116,13613.521029081658,1747.3120281804545,1464.0840633785265,184.660330772759,7168.084881489918,-6532.630520746133,13481.421719513888,1745.8261305618157,1472.5901853408957,196.00866995990484,6788.048493685725,-6063.027571433232,13752.825045954562,1763.96897374562,1478.355716595079,178.36792523948628
7636.0,-6020.0,13840.0,1859.0,1497.0,115.0,7351.292493302527,-6049.446341209583,13000.19832732001,1864.1271099930243,1485.1713783615141,108.02329813401921,8346.700625017058,-6278.821408390454,13315.327460983388,1872.2380599511228,1497.217521659665,125.94561800103895,8852.782053184466,-6502.483260317768,14148.816465998862,1858.2757256359355,1505.3259616296248,108.23947937107721,7253.564007239251,-5318.273638811344,13655.525988490495,1870.6371491408108,1481.2982013894696,136.21987392771746,7531.173841112415,-5716.926826181531,14011.594631050524,1868.2307174144496,1503.8255516294491,119.2448716277369,8351.556915329096,-7353.760835065542,13167.601654785696,1861.0788803174837,1480.8342702096418,127.04067831812866,7543.323224857375,-7061.40430473834,14168.66849570156,1847.3276232102621,1491.1495834011002,134.4703544678042,7750.3745002522,-5288.420353241267,13613.507390175913,1870.2792356717096,1487.9462635291138,125.06086338682977,8060.413757984886,-6054.304176734622,14240.71841075493,1855.86965881328,1493.9753485245544,130.7967012211875,7468.547706880352,-6743.1302454540555,13195.715939563705,1870.7133596805845,1477.8689874578,115.88174116739141,7605.4987569083205,-5742.330563895324,14091.247739961867,1851.4020073889258,1489.732574055977,116.11978090215065
7584.0,-5868.0,13908.0,1473.0,1344.0,292.0,8368.384032362628,-5065.481646333194,13623.458798660862,1484.2159309513318,1347.2674568271373,304.6509308901669,6810.449468648474,-5822.1802173937795,13615.705561617237,1485.669590386003,1341.7466730006913,292.35239701779716,7743.424158874084,-6786.250722812223,13965.696280739527,1469.1042679379868,1356.4414535131507,288.63207982943277,7873.906053025581,-5491.602040592535,14002.173728937332,1459.4634166960545,1330.053058156165,287.28878234682344,7632.729638150585,-6366.151382637805,14739.734489248862,1460.6617795683028,1329.0798780335035,296.97211134726933,8325.254532498693,-5856.429704108956,13079.447766519224,1469.8810376385818,1345.4203287075738,293.12548908801836,7645.465063842556,-5433.251055319058,14272.225631259449,1489.0065079957087,1333.8285865483851,311.286245085348,7779.5686792028655,-5904.421436424275,14671.152471613343,1461.7333512242424,1346.837265883686,273.6650624682645,7437.455178097079,-6173.073394549204,14308.201903145797,1475.5811240669461,1346.7022729298712,311.0177544859245,7395.3199726404755,-5758.147372677386,14625.644548380482,1460.527171195691,1352.790684124421,279.2559063315999,8166.034849591626,-6072.558464705791,13318.805810393562,1486.4727993816648,1362.5633868029,276.372162829687
7684.0,-6168.0,13784.0,1105.0,1292.0,427.0,7347.254999812603,-6277.991013187196,13378.317822099505,1094.2298534622876,1315.4957246672798,431.92386205263966,7936.259609861636,-6464.307667593814,13858.571942054112,1087.664782969311,1309.612059935424,425.0356948389842,7673.1099150147975,-5970.050358872337,13496.109837401777,1106.1104125397596,1275.2063028526159,421.4127126783637,8313.963042109117,-6607.685802414774,14154.202875126148,1108.9869991699934,1273.7812621068176,442.2724178707885,7088.515215460828,-5247.280508044071,12869.455664894263,1124.7830526991424,1296.790492805373,426.2268121494995,7584.330802466214,-6489.81871196778,14937.606901599458,1108.2685049117708,1275.2409683525796,415.80070393002296,7640.670124659957,-6455.9616218542915,13399.797327405564,1106.6649827682247,1301.732980714365,412.5656391357816,8507.18218379462,-6206.568587903109,12665.563515570211,1097.8222184890094,1299.887496525107,429.45111955151026,7576.32215194932,-6396.68487060672,14624.524877807682,1102.9105479194548,1305.8835908996484,438.8610932302284,6971.545795479144,-5332.318221405154,13164.701239916076,1096.5528654473464,1289.8654517016228,431.11164781429113,7552.79877537076,-5791.1800921528675,14215.68861634766,1108.592773103719,1303.0306605028568,405.1050264463819
7556.0,-6380.0,13532.0,1167.0,1446.0,414.0,7951.164848259215,-7002.389628302841,13641.213676267871,1178.3642398077463,1459.6736497517015,418.5519982458535,7001.136710978301,-6243.201396050185,12129.916171990017,1157.7513884774319,1427.5563809651505,401.0417518465656,8034.095589540228,-6434.441791110784,12814.821295684133,1155.2502338727659,1439.7377298728625,413.16162389350035,8145.521984036258,-6300.934095556003,14125.005683203246,1171.5004305029192,1460.2290766682179,421.1346205591768,8056.514998749162,-5675.2309150436795,14618.159808763074,1173.188915086511,1447.516704180392,394.56284779074207,7878.42121577002,-6492.312995666181,13927.15220301753,1175.0803810938123,1436.5061937212101,408.4582468506383,7354.793335253199,-7168.156701872225,13739.755029525848,1161.9388589704308,1452.1717251658583,406.13479950927,6811.711528229414,-6745.599637383157,13140.861432286596,1161.9353294833077,1452.4861101361691,413.2399093560575,8355.77328718368,-5474.905649308209,14207.892793149133,1175.717054726385,1445.0517614169253,407.31549848063617,7094.808014730089,-6919.840095680565,13676.775518372766,1167.6412806451542,1455.6985477565772,415.78822410987755,7275.709857972453,-5834.849281956698,13169.482440847543,1161.6867378217758,1449.196470569242,395.82591175790543
7344.0,-6348.0,13548.0,1630.0,1504.0,351.0,7229.9494219915,-5969.528240691728,12943.779275710947,1633.6371269286346,1500.7387975440545,348.892587201515,7772.472235434654,-6359.417359728167,13968.87006013007,1620.0028505225578,1490.2035582903225,359.6839194809167,7884.944249853419,-7119.298079573126,12950.927495405977,1631.0987941857775,1519.4602769295232,367.29641236330133,6997.255804814876,-5331.967475476307,13625.550239332742,1626.7798316316068,1505.2246749152387,340.51276100087654,7852.312878913852,-7242.752524832531,13097.536774649947,1638.3746991940454,1522.5738773966627,340.04930519327655,7525.00648177391,-6714.598735369422,13545.088199061976,1632.247670888751,1510.7466191833971,367.0427372457755,7304.0685193125255,-6797.738674711709,13274.039465867349,1620.7550285670684,1507.7424361293604,341.4268628257258,7055.951846488671,-6215.418965399063,14066.039432543395,1613.3023846533558,1499.257192354681,353.8712687513326,6765.57265089203,-6325.7862509002225,12963.865109449216,1627.8548000092767,1514.2520623006556,352.81840417848224,7179.3151933631025,-5556.321372858394,13667.880482678513,1627.9033759467422,1494.3700443079524,358.4603622322002,7275.900942126263,-6274.230795718507,13371.939578432055,1613.4545300252996,1490.2936107655228,362.5758999412639
7292.0,-6116.0,13660.0,1888.0,1401.0,248.0,7664.3104404197375,-5832.764541310768,14513.124627100618,1891.8373491562959,1395.7185880955287,253.29278549659583,7303.524831591854,-6344.354701332409,14022.305674953599,1898.1167893414345,1404.8897679934673,254.40867557068773,7462.452118759953,-5236.180377768668,13411.411393663791,1886.7901133394002,1398.1487573780284,266.39050544388243,7569.125285899848,-6154.776180406633,13197.742641023298,1893.5856054175472,1391.532432755072,255.61706381092847,7917.371341646334,-5671.225542504212,12600.460296826926,1893.2531205250775,1375.648715280479,259.323825664192,7816.026314173146,-5819.016950443605,13027.925045722857,1868.2546736399563,1395.4962378760565,236.33592188503337,6735.859343002793,-6666.668841719892,13924.848408619348,1927.103452761254,1403.9964286324182,227.6181313198085,6607.640890865104,-6156.185885559367,14651.537489696566,1882.6556075136136,1413.1916087800344,247.75238973104803,7254.714875151826,-5364.937336860135,13147.658064638437,1889.8521706144045,1393.2354396221317,233.96882819958745,7320.19593502618,-5650.32747462371,14424.119003116555,1902.8186099450531,1410.6432110509686,260.0539188620123,6937.916650699766,-6149.755032881667,14452.649044437541,1896.0679856761114,1394.6013989113992,239.39080744732865
7460.0,-5936.0,13624.0,1701.0,1272.0,271.0,7896.767885088139,-7263.874113564328,13721.231134856574,1702.5225753460666,1278.9319027220076,251.255800060563,7474.544404544632,-6473.895485230359,13664.133451216996,1696.8615277942667,1274.9363735386212,300.05245289196625,7903.168121366536,-6198.514849934164,13632.274158116952,1707.3170590931197,1283.5489242534618,280.684184448856,8164.486721866229,-6262.146684569955,13391.04136077468,1711.8486305473914,1253.1961840074825,266.5530647973494,8178.167178347945,-5987.1859956746985,13699.917006469926,1698.2296497343862,1263.3189111698919,277.04895713084613,6365.0571241318985,-5742.907061909855,13783.961315137007,1699.0858262848815,1271.5405916918467,262.8720518701774,7317.347826159996,-5347.715297007993,14098.331676077612,1724.1298122393366,1281.9092434966155,289.24662202457694,8134.915070946998,-6123.296317721162,13668.639438480166,1695.2830292668639,1298.9647860772627,251.17682772530577,7452.405324608102,-5813.962661113876,13267.158076542162,1718.669967066618,1280.7161436196163,270.9776869488732,8197.027242786891,-5701.700342125566,13534.921857531459,1686.3788602691816,1266.1957030359335,254.283138865339,7334.399852036178,-6122.878161617781,14632.045912117079,1700.5690473188001,1267.1876399392272,260.30239781800344
7744.0,-6112.0,13736.0,1264.0,1157.0,329.0,7946.568138311808,-6500.423151469123,13625.54142392186,1267.8519503329226,1158.9152417864996,315.8837657327866,7315.916669163789,-6053.326665769667,14021.301037964164,1282.779345309362,1137.1030069644305,316.9772125489393,6706.160729718212,-6556.341157921704,13506.396254022642,1251.3484504598794,1158.8377688452822,319.67202347800117,7518.408439955315,-5265.077396442011,13399.78175808585,1263.7129864621147,1160.7209122218467,340.1833400217232,7145.214772973879,-7326.635065538132,13111.961840786093,1288.6901114236437,1154.4258958154276,312.64776561727206,7754.750442842083,-6640.047779052627,13434.978156633353,1247.6333755709709,1147.447431667885,341.7793693534698,8453.88107430594,-5723.70767875073,13380.764319271902,1254.933436506431,1154.9015527766671,336.62404190177926,7826.889267703101,-6231.404190477652,14167.033191019205,1239.9706649143382,1165.933028314744,322.5544891145684,7323.165571587938,-6176.284160309361,13663.865152229506,1274.7112348357177,1169.3480461733025,334.55816040024825,8025.803538850729,-5674.621295461631,14235.901492289458,1264.4259239667542,1161.5950814576488,323.3205313626287,6766.89715709284,-5197.585101086675,13551.941145032017,1268.6791250838523,1172.5119959198398,306.07413229301534
7860.0,-6516.0,13688.0,1327.0,1241.0,401.0,7979.656088209556,-6514.111785388988,13797.101621750255,1325.0398036791505,1245.9105143193,397.0814554082643,7791.122901115389,-6504.550130432981,13637.128829152816,1321.8824166012118,1244.4618662160142,399.86981569734706,8209.130670593042,-6362.32376410149,13658.448238599609,1327.8261822146605,1254.1034829300652,399.92285860325387,7733.464535255563,-6360.000683357605,12760.92808939646,1336.0775707393236,1248.778507906827,396.03213752368447,8112.631856546728,-6657.730988963407,13622.686755871446,1326.2404576405465,1252.8608555164933,397.5877259240876,8440.364190591275,-6267.155294892587,14073.108368808,1341.0061745741066,1237.5455681165417,396.12470197993014,7291.779673304354,-5959.4635916133575,13595.373305112362,1368.6988842888486,1245.6030529937211,403.0631916902251,7557.103789734111,-6568.255244005058,13252.552013594779,1337.433159847818,1248.9637852950636,392.80144774569254,8487.451019968114,-6750.211940300167,14001.669473459644,1325.6619462243711,1250.0456648681823,386.7240128140156,8147.5580164814555,-7219.350302568138,14198.442071029336,1337.4891198368,1234.652094040239,410.6831347545715,7584.8675735517345,-7135.546218430708,14445.986723364356,1331.8860018984064,1240.8118679254067,394.5618088860464
7836.0,-6652.0,13696.0,1724.0,1533.0,274.0,7986.867289465225,-6584.43482321639,14333.165321172632,1725.9668727346648,1528.576815255985,274.3069842623747,8259.771081626946,-6134.9799930401305,13196.508343899328,1723.8939025885575,1535.0146877447,287.164379557952,7538.843768258011,-6839.075654018381,13408.316399545762,1716.9850464026597,1536.4213311059646,280.66073092789725,7373.337210407409,-6546.065805534295,13518.165407383402,1732.0766117061862,1543.6232325782876,279.70628988575015,7327.698908261404,-6777.438598591338,14499.711861786162,1721.670438471343,1553.9134030706052,271.3973674977862,8225.187366343178,-6620.850849593617,13443.080208762794,1703.4628271060592,1520.2764515791885,274.56263230024354,7902.884509206148,-7296.740185316871,13951.82572928425,1715.091328836416,1520.893950765161,254.92300015959648,7127.594896114624,-7477.428015812362,13617.70270464256,1727.0305177908228,1532.9913717034096,251.80272362030138,7867.464706780781,-7062.127694150012,13418.410513850213,1719.3404666803578,1535.394188009812,273.30016395609294,8105.722429998826,-6492.055116812861,13613.217751788443,1741.820444768665,1517.0665446918972,290.3669610317726,6947.634492324205,-6674.107695169036,13477.202308461448,1720.1419232608835,1534.5006881432907,265.04972249146124
7212.0,-4716.0,14296.0,-19.0,1301.0,941.0,7609.644170803768,-3983.8244284735956,14216.259357426146,-28.295687747517576,1310.6529079654797,936.1208826236656,7321.197344581183,-3969.484025851256,13719.985188463268,-13.622044023292112,1309.434710538477,961.0705304801133,6923.747390806193,-3902.475473119594,13817.8401209304,-21.49586826488642,1307.6320555420598,935.109753428877,8188.676461235107,-5262.123223204332,14013.870896397799,-19.27871374028493,1310.025513066012,945.2971932000243,7788.1017707667925,-4089.5949809737176,14553.879548777888,-18.256827049814714,1290.2489999880256,928.1903331376889,7024.402204354918,-5814.130582216856,13452.642932592662,-8.349892121784952,1313.7339591265932,943.6916166636659,7873.062450577048,-3702.6903037067104,14294.546310243757,-24.62758222361108,1304.3717048874994,948.0907141281032,8010.88560295209,-4687.373086240521,14669.711148937467,-9.682535654019235,1291.5388218751061,922.4877772428141,6953.1088232402935,-4250.607030977705,13936.001941210345,-50.73115688011459,1301.0713337294515,941.3436405571643,7466.530085190088,-5064.629932822707,14283.33690215351,-14.896819141644741,1302.982772240422,955.7488435261771,6292.098915525516,-5947.872392189341,15733.21893150915,-4.808135809287014,1303.777261997469,935.4718657526431
7144.0,-5144.0,14136.0,-3123.0,415.0,1777.0,6699.447012565949,-5355.983555628608,14203.918026469786,-3120.039244437841,415.08735490378336,1759.5261882370712,6884.018971258336,-5527.624843654221,13822.439792245721,-3136.758491961559,428.3553578052229,1773.5678202528093,7109.374896018754,-4716.820668317062,13572.341036705871,-3132.172805179794,411.24125907861315,1780.8604917732266,7348.3294345454415,-4945.669719043176,14389.13930601746,-3128.8802855732397,417.10984531973975,1770.4985687650778,7725.282746470993,-5197.042932985237,14332.123463126842,-3133.069471239585,418.5867459100539,1790.3647721461425,7527.934421839054,-5233.459332332083,15457.24795589832,-3128.818656006855,420.7197748029709,1771.8114890385145,6686.362433571449,-5362.220781257958,14257.153315738975,-3136.868951931537,423.49990149995756,1774.2521167877453,6982.764140271106,-4489.753633718707,15203.479853028897,-3109.532326569522,407.263132357206,1783.3649235421278,6648.006068987987,-5604.102084203943,14333.59463180183,-3105.146008661017,408.1825449795679,1783.3974093346446,7307.905576966433,-5839.25384974306,13579.173483221008,-3119.519743426854,395.90333353516684,1745.5611056715168,6847.939187954625,-4461.2705624128785,14933.664542960267,-3112.405237920096,430.0333686825235,1770.9375658556064
8212.0,-9032.0,12904.0,-1861.0,412.0,1414.0,8182.238950967531,-9934.236316254905,12884.779012905592,-1870.3413583669335,401.9201647107578,1423.8068732198024,7696.486475682758,-9006.023824030819,12342.552011418133,-1856.7124648318388,404.0074790350482,1417.5308433791,7878.741015584247,-8305.404309659798,13006.914342265913,-1867.508878133335,416.1615820583929,1403.8060519384535,7256.936123960971,-9070.890194915044,12062.178522180762,-1862.6591811015994,404.14341586615643,1405.0671045224892,7886.993490655295,-9055.06780785781,12631.184673146132,-1870.441264849362,412.41593708182745,1419.401691096942,8764.849910144889,-9056.894401530155,12532.414284580813,-1843.897272836564,432.85334079184634,1404.9843443544976,8722.158504086095,-9226.149832707557,13353.298098978144,-1864.0210103308862,413.58512498013397,1422.2789172798196,8270.042102655805,-8989.208421233934,13132.368293103262,-1871.8164695493542,411.05230604555874,1410.751075439324,8554.404244327208,-8447.379556638458,13301.089391356216,-1864.6519830310629,393.28414823406564,1416.0923339629403,7864.535067080863,-9246.313481636565,12203.177400801655,-1874.4893645393622,412.84816210333213,1401.3571234657354,8392.83270396081,-9484.520680598347,12664.867902248385,-1860.9790673908817,432.0609442576815,1415.4582585834135
8704.0,-10056.0,12844.0,3620.0,1898.0,-106.0,8743.002145014496,-9131.200526796747,13028.896290716018,3619.417809801959,1904.660605350827,-89.93469600575625,8595.052696442717,-10576.662026843447,12733.213241501779,3607.8969319459916,1881.2957457846142,-122.64530949836514,8670.327761346476,-10202.227039352616,12965.576931774547,3642.988560073016,1907.936104098886,-118.44607527339038,9387.490464772083,-10674.757801952084,12495.954708663032,3604.830707649732,1913.2827398802167,-98.89917048940514,9554.898613348652,-9589.790797675683,12590.32662846507,3614.2821023873785,1917.3342796424463,-95.14394019299667,7917.038843758535,-9668.800120401638,13408.44233187893,3615.8296938716103,1893.8275783914157,-112.7188056524577,8958.757275808402,-10275.992518352297,12719.198847128337,3625.5755558051974,1892.916515333414,-109.77404818446438,9136.852150188523,-9576.110160659067,11573.907327864841,3629.788208645204,1911.9759208486162,-110.21963514498098,8452.52474907553,-10228.294262785173,12835.242792081583,3618.2615330971307,1901.0430796359735,-97.98637165040444,8742.903513634537,-10229.219611691271,12903.55465518299,3633.0690263197785,1904.445835972758,-106.3297260091929,8149.230813611955,-9338.187007183104,12842.820849448919,3636.380857409593,1902.6998334827845,-117.60055318111317
7540.0,-7208.0,13464.0,7177.0,3009.0,-1273.0,7475.931210817966,-6705.875166862452,12348.162178758936,7183.284094297646,3002.5287079086343,-1270.5841382652561,8031.281727818637,-6221.8245928260185,12931.246182432013,7169.996875358676,3002.2428433464247,-1283.7406383288103,8155.114007597355,-7056.239800916202,14904.707708337952,7180.071682226823,3002.8685911476855,-1278.8143659929076,8139.499453227134,-7810.653759881161,13170.880977903094,7179.083848759531,3006.6156538044233,-1265.4029435629498,7505.4329879244415,-6958.085270993621,14198.93971330687,7190.488465001194,3006.9117122275466,-1271.976709980855,7493.1988693142775,-7583.176707040682,13181.408035276996,7169.819548554644,3021.437140003042,-1269.900205908397,8017.811444071429,-7463.754819446364,13426.476696870785,7177.204339962024,3005.2245572268257,-1284.0614877209168,8814.915471944247,-7504.16423259254,12710.567276959888,7169.398425834175,2992.870199631923,-1279.5899459988466,7599.033292768063,-8052.579408725932,13188.831179662311,7200.933631398983,3014.221595982174,-1263.1279902958809,7210.70269586052,-7026.688149921787,13320.470627656778,7168.908087371778,3012.1157559558633,-1259.7729617834063,7132.438519837772,-6713.902732470428,12903.550120836355,7171.790353599214,3000.8150932595127,-1255.7599553834414
6860.0,-4528.0,14052.0,6043.0,2807.0,-1267.0,6634.29687604414,-2928.6611569480438,13986.20836200799,6037.578112761791,2814.9169222842306,-1262.8692869197919,7700.007668393194,-4341.432869725158,13477.395797257488,6042.498661288881,2791.56002892316,-1264.0818106078395,6614.253951069124,-4959.894821540854,13652.446482692254,6038.354518575371,2806.334556103159,-1264.293643874457,8064.310967161971,-5111.087218743472,14215.76451152598,6040.492925656487,2809.1425932742973,-1275.9481921836464,7184.959619676886,-4115.132862318753,13969.830780137505,6058.574164475871,2788.4491255728194,-1274.5889923025406,6840.329801273613,-4619.767252675175,13729.498314290608,6046.507508889963,2805.56643657166,-1260.3533768336758,6342.828902263661,-5143.333690619304,13954.386258116538,6046.064561686527,2801.5823292148903,-1284.4404474294186,7679.266712288725,-4858.4669615024495,14398.665592502603,6046.001738088114,2803.385769214807,-1265.148162629802,6472.065478591566,-5015.618757332792,14358.931847706803,6061.2892558129115,2803.8694818651416,-1242.9460297681633,6751.580120729475,-5324.917184206642,14842.772513152964,6048.030041602049,2787.819166548109,-1274.5536013968244,7214.314570297625,-4007.7672228402034,14071.425457703568,6039.396878622002,2802.3455497081463,-1252.9807930850973
6872.0,-3976.0,14320.0,2632.0,1816.0,-146.0,7359.271547725264,-3844.226658051501,13901.865332141042,2643.1359592412746,1820.318014889647,-158.78206152752222,6397.789752520455,-3360.9834410647036,14393.959720151137,2632.192752353155,1819.4388960229915,-154.59451199985983,6909.195295877199,-4738.824030981395,14649.4172651051,2622.264631885297,1823.8189748488485,-146.25752659945294,6399.141228198599,-3602.231905006627,14441.628461290897,2617.6170136113483,1820.54390406021,-148.82329245897535,7044.3308231925075,-3727.9787796800974,14771.416814465778,2633.3995127441403,1818.1255949272775,-142.15117945645207,7037.878149771456,-4908.89256077158,14563.42628858867,2638.2720248367023,1810.0291077447257,-141.02929789124713,5752.10057940785,-3929.415761332043,14038.458004860822,2635.653397885666,1821.7982251206818,-144.30800740130522,7682.796719336579,-3748.1718500357188,13212.987486467458,2622.161047524223,1792.532789934588,-174.9323027515185,7339.737557158752,-3054.6099166078907,13530.355751920983,2644.882451055089,1813.852640766036,-149.92441394124364,7851.06635976803,-3374.1513919196673,13958.559476584993,2616.0589419013254,1815.6261770299775,-137.9207931343107,7108.814062814837,-4382.843300114269,14699.467252527833,2625.33467823084,1811.7815300487882,-145.5331048538279
7204.0,-5008.0,14020.0,-27.0,856.0,775.0,8952.568330755741,-4940.878118296666,13524.590662466277,-41.89230576264277,856.3817059264862,786.0113877065196,7076.498452544447,-4971.379719249585,14204.326444390726,-30.856132412655025,857.0817733254552,768.577571079736,6537.019820526173,-4865.497634532981,13414.66217599342,-42.83831193901436,865.7037244694358,779.7939439011014,7843.715502393821,-5742.735731696901,13637.831242836915,-46.11472878578572,872.8655129903121,777.7706871990882,6868.090395340018,-5053.536039544334,14026.259965239842,-20.273116366603688,853.015232556667,779.7900460929435,7127.560406870842,-5168.715117839164,14368.04777036063,-30.617000281000717,853.1012913417121,786.4229442388262,7236.171583133055,-5218.971479200583,13528.715705469458,-32.55800161676672,862.9925039300323,767.4142428212706,7356.783556974116,-4821.669197318308,13321.054039956049,-55.0663440666134,856.6634766625409,789.2365095735249,7958.078436802176,-4647.69833202703,13670.010441011038,-20.0704233605968,860.611400419548,755.1512467799942,7452.703290134559,-5479.733554155209,13258.204036993924,-36.012955292914114,850.1434289014006,781.9749850925486,7151.68445484224,-5022.500848736428,13529.555513675146,-41.9191753190024,862.6768898499029,771.2857036208766
7832.0,-6660.0,13548.0,-432.0,596.0,993.0,7087.240566263309,-6782.34689664458,13650.22253314426,-426.7429092096572,577.1505747586704,993.5651941617951,7433.969717107322,-6803.269124220846,14002.802300697254,-420.1502955376789,600.2064455575086,997.4165371081114,8072.977062846624,-6656.249473005619,13120.621223631568,-434.51746773213375,600.0252281680093,995.5813413855025,8177.380207483019,-6967.016206442848,12869.609116748783,-443.03263841920005,591.6648252620823,987.4671527599653,7811.32070668986,-6487.434520270853,13840.668409257136,-436.59241150842837,584.5293165726333,977.1233328042063,8274.01869414167,-6616.597918661505,13842.434393305077,-446.9497526719244,588.6353166080067,995.5985400549396,6534.757974453545,-7074.583984474946,12673.774625069163,-429.9365648349457,620.0523581469103,992.0849450286631,7100.501500994474,-6901.413222950742,12300.93604059001,-425.22363509137284,613.5282711640359,989.4578366508974,7092.1350639229195,-6485.916853615118,13163.39618043076,-423.65528578044285,596.3437313179838,994.4412730544467,8087.248144633943,-6455.705268660488,13229.608984694907,-414.3673570990157,585.5623881261313,986.1926917195402,8343.48770005612,-6931.138500916049,13929.932810227703,-425.8497959419379,586.3342273479875,985.0567497805308
8032.0,-7316.0,13248.0,1244.0,1142.0,509.0,8199.649955578981,-7499.181331426099,12679.064785799546,1241.0035628396631,1142.5266490385557,519.145232255415,7968.021577304349,-7145.808987840299,13231.77527868855,1241.1470593349723,1126.995433153239,508.81381276734726,8051.77281618018,-6694.795644392478,13167.092315602544,1266.855026996628,1145.055680732237,514.8215605950634,9257.743067486144,-7309.147207566906,12762.119581420062,1248.0925733534746,1150.2854749815226,519.5069602613743,8119.148350404813,-7495.99714644538,13699.372735147466,1264.9746847879942,1146.896357858235,492.78180552513874,7624.806471267905,-7718.657859545285,13149.562432543562,1223.8006518462976,1144.1551873101382,508.4135580421796,7496.894418464572,-7870.101428113439,12931.057508554873,1232.9527178826984,1133.6021995618778,520.2868118936049,7415.231391809986,-6967.642417953435,13839.229497792036,1214.658547630052,1147.014464958961,507.7124520773314,7741.2163358574135,-6535.69246527557,13877.609821722497,1244.6642041383063,1159.7013776201088,511.07485819759523,8162.778543100204,-7484.456997918652,13009.953721726437,1247.0565469440107,1129.835104345767,512.9720193930264,6905.155976669036,-7311.690596755244,12612.108873647265,1236.1397467272147,1139.5280854591995,499.4441735439339
7728.0,-6776.0,13388.0,2694.0,1715.0,-11.0,7542.301253006018,-6623.342297414586,13775.047860997138,2690.582282036365,1720.4932811549768,10.82222928399225,6677.639951478766,-7263.4202569110275,12601.942243750505,2697.8955686243576,1719.5909380181447,-12.246151573921518,7540.728605571187,-6327.241308822391,13026.732151732245,2697.059973800724,1706.7506464743853,1.0611496611359907,7825.129622983361,-7128.362124437789,12993.079895473918,2691.3432851921016,1726.4126150074233,4.754372612697479,7988.4096081625485,-7067.588730788016,12857.930517595185,2706.1265543873137,1699.0135196099757,-28.751931252736505,7142.570668000167,-7306.610680948125,14150.21926344797,2688.418806412097,1716.049671904377,-6.132795198542144,8029.150000258415,-7273.796917937321,13334.946200275568,2688.639565446572,1720.0173417366912,-21.620939360875543,7386.510559166535,-7462.810311307032,13790.756935987056,2696.575179117333,1723.7195510025526,-27.300607023494894,6702.448837583713,-6521.498867894363,13595.039963148913,2687.9127296681086,1711.7559632962727,-9.112088954250101,7551.683901609279,-6903.889031792506,13397.251725522901,2697.283370159659,1718.2080942873101,-15.035078347109742,7754.508581818573,-6389.977839139975,13673.086250229446,2687.02244140983,1711.7531597557652,-0.04667197571092707
7168.0,-5528.0,13812.0,2513.0,1662.0,3.0,7311.211837707549,-4803.74162645362,13646.668730393785,2509.3170400224217,1663.840847118458,5.867525812743992,7520.90571247026,-5614.588401817459,13886.153113425395,2513.9828699589566,1662.430332682456,22.10101295204847,7703.393875494659,-5588.235592434827,13196.268778945005,2492.2819320184917,1654.8078409464729,8.14921360256565,6829.642407837952,-5755.242340726223,14336.537175307061,2507.5708197220574,1663.1553479446889,13.159540503331954,6534.843155274395,-5496.071074182876,14456.48429370506,2513.512481293879,1670.0330347811787,7.803437637740565,7143.0344698188,-5727.599014083918,12918.004460847542,2513.6544292129897,1651.3026871050013,8.90620278493736,6756.233608151213,-4873.447107652135,12899.770344215942,2512.9443204084596,1654.189455521164,-11.552560885938222,7643.031316087471,-6201.622409497494,13398.373900946577,2512.137471453792,1649.3180795616056,10.629563890671465,8316.368977119662,-5091.468461275823,13461.720087845431,2520.992371069752,1653.901612377447,-7.41039121621975,7208.31726578801,-5521.145653204174,14301.926720093688,2516.8850083159045,1658.8821171841373,2.938589315231776,6321.098881032716,-5664.315595080502,13909.363959468144,2501.6273148431037,1682.225370997485,-6.890480919136698
7104.0,-5424.0,13768.0,1116.0,1055.0,426.0,6414.249709625106,-5078.75379422945,14220.762099811725,1109.7643053827535,1042.8076671641152,439.5357048268562,7984.552657783228,-5534.774868754928,13966.64568013572,1133.1132975185221,1050.0435836905936,416.13408481025067,6896.837690395586,-5223.281692084486,13442.321593089646,1118.1083898185655,1057.2194051439621,430.0202852560729,7606.021536011303,-5546.182083138406,13872.583360768178,1131.2187498461858,1056.1477208035249,435.20021661684024,6863.429330320482,-6164.267561790018,14371.09561293415,1121.0690924090966,1069.581757393979,438.6765343440318,6616.348978100636,-5586.163649053261,13975.663700137253,1115.369647425534,1065.8046603184328,438.13878456276655,7668.4676092403015,-5461.6240826437515,12740.181413460705,1119.8945893850243,1074.3764470974115,394.4699774680464,7326.868171093832,-5247.985790908658,14203.903844939688,1117.0791426934447,1063.6157459599478,432.4555854812161,7932.748541363544,-5780.3621042337,13777.22809949141,1121.762771484541,1048.061441235178,427.86464364019844,7887.584893436176,-5753.608580653979,13536.42250975298,1114.5951129094701,1039.6904590323788,418.628849463678,7195.003643176843,-5642.759324577987,12850.417491039758,1110.6645918960216,1051.8595750397023,445.6452600500375
7564.0,-6540.0,13588.0,647.0,768.0,638.0,8342.3684846524,-6167.747771306761,12872.375838353555,653.0278219706701,773.863902865896,626.9745561440408,7885.985420139372,-6934.145869791716,13913.831314021654,660.6693762426379,774.4938256300902,638.2768520737985,7473.039206871998,-5805.16286392337,14130.459799726676,651.1391137077019,755.744239653229,650.4411969755712,7681.709355667263,-6408.388260564901,13996.423978385099,651.4529724050116,762.216855007618,649.0177020189398,7522.759664804882,-6447.547586668816,12612.117750789535,647.5860472120031,759.4303357594389,634.7128291959016,8531.985341292377,-6064.284204450223,13470.192979427935,641.4457151008944,750.8247778830676,626.9145599785427,6787.57923995376,-7084.4182204534645,13429.919077751547,624.1885141822628,775.1469232532063,631.7738557472392,7829.131377152076,-5828.397137850383,13021.254263750898,628.4905276393398,765.1148498169141,617.4339939310069,8033.860290597919,-6601.931931988675,13921.301789372688,642.9832622436074,781.9837192934922,622.666710575266,7178.180173954196,-6771.338527248081,13262.010162297305,645.3293641810391,773.4333596038897,648.0631397865318,7800.33318790754,-6330.714692200892,12449.488379392054,650.691792835316,752.0899925492263,655.4955977735309
7960.0,-7004.0,13540.0,1637.0,1021.0,415.0,8654.145376907352,-6387.051112384648,13736.283008220636,1643.6918942155692,1018.0289597087107,428.80964592924914,7507.714453678294,-7474.1112470674425,13092.61885069287,1632.3949748917385,1026.3240239790146,405.7346653740928,8537.69181485398,-6239.488842085721,13649.045505378763,1633.4503546298,1024.4624598510447,424.6865759211705,7862.18590354912,-6869.423354478626,12826.81182682465,1644.0398273974165,1028.8846749526435,426.9899691470469,8974.219230672581,-7023.630398029888,12861.578305918521,1642.0037540562935,1021.3368032424512,423.3172789284721,7842.56659699019,-8028.297335889443,13587.808645062192,1626.9107705240965,1018.0447423759988,411.7662199458809,7592.231921688274,-7072.902712142404,13486.778432589059,1638.8404512864977,1020.673579520118,408.9659068686859,7663.660531266057,-6897.486979380609,13618.08970883179,1640.699013660708,1041.4381608414524,425.66793161667846,6932.205371057882,-6609.919371078575,13872.461660408015,1619.943567137226,1008.6312515065086,415.62188847160274,8373.802784577565,-6838.9503107992805,13737.170698344635,1637.8041101630793,1020.9698037412861,413.2248368022051,7594.2284274598605,-7286.326403715142,13225.784072943552,1642.5964256061914,1019.4234515767693,410.3247695509154
7744.0,-6576.0,13672.0,2429.0,1385.0,165.0,8428.698421148758,-6596.894350799553,13042.440521986973,2430.851275215134,1387.3512086465932,170.80037808861061,7673.980896657233,-7308.107756665088,13478.05043193984,2428.8846929860388,1382.4729206637799,180.47497271605195,6808.473225203417,-6690.35321625068,13416.451498499899,2407.2838026722375,1385.1000224350603,164.491390695846,7412.132730885432,-6316.9655775385845,13878.335105403683,2429.590907537118,1370.8764797326369,158.74951339446622,8321.68599422799,-7139.390261723175,13540.993989952807,2428.3955687872985,1377.0374286690999,167.86754442085143,7252.241777795861,-7266.854491651811,13392.520214750159,2412.1801876407653,1357.2176553833262,165.09422121909014,8580.05778981705,-7203.774512455957,13421.49420447597,2440.800672788526,1375.3362676027261,148.29646578533539,8061.650925623045,-6511.167101560037,13681.410374955516,2430.376865396332,1373.1537752280517,152.46202208541592,8265.08483085274,-6633.601695759644,13162.578594508383,2428.8258143635258,1368.8908322060154,152.98163304436997,7986.154488614562,-7094.13095077945,13784.771075270231,2445.845838467977,1379.8982523641937,170.90256654223353,7556.524911747884,-5416.604997909628,13110.030596646586,2429.2965109918746,1388.4910751721332,159.61637061663862
7476.0,-5976.0,13776.0,2130.0,1450.0,149.0,8251.55235231937,-6015.417550725596,14339.555165386473,2129.423317464757,1439.4141836335336,154.66939063516415,7191.909976700969,-5681.74519583655,14304.324036152333,2118.609241760428,1451.8329956977304,144.96091604076065,7847.195543874076,-6047.030703102361,13331.16363348773,2123.561139756497,1438.0679583281774,136.2330985787473,6330.123499208621,-6137.628793368901,13969.055376654169,2133.7195248697117,1469.4813255585138,157.12868295924224,7599.672353327207,-6185.652618417925,13343.766718558427,2122.0256160993517,1452.537260224311,152.70452909992213,7777.5932807422,-6060.781747698294,14102.390898324293,2133.8727048369788,1447.7991868594936,155.81099126422367,7399.1743216009945,-6082.703789589636,13367.687358679697,2128.942145892379,1468.2467313743355,144.91349217871493,6815.793387182691,-5772.601531978386,13909.53185387071,2127.8375332393935,1452.1590463431469,135.04184560215208,7049.952004166574,-5585.886587725056,13145.858028060637,2132.1217764280327,1447.0954640324164,122.67244496188555,7288.566856740426,-6165.315220307245,12485.960612748444,2140.225425685265,1448.0245685145726,144.2267442070686,7165.5889322712055,-5382.051704848491,13116.585501192776,2120.9940426811363,1464.4388591177735,161.4479995379761
7472.0,-6084.0,13820.0,1501.0,1278.0,314.0,7360.788829659407,-5546.343921340427,13848.00764254277,1494.4093573056136,1275.37991838718,304.47073030835156,7450.845784546145,-6060.788137452364,13130.993617386142,1492.6190523972773,1274.8157109446652,324.69011383773324,7889.682309551486,-6393.744121000173,14127.738671599376,1507.4235892281881,1273.1525707932224,314.83569837452313,7279.728478987517,-6334.485847918594,14698.362256731338,1488.315198231592,1275.2488933793616,304.60778628066186,7458.171580036425,-5429.801845316826,14097.130594639697,1500.5895966477458,1287.514365459424,325.8972188788213,8371.199684547035,-6456.715954210098,13123.353173362948,1500.3882447717654,1272.6143229376694,309.43535269635794,6833.268385891868,-6027.313792282927,13591.773515224164,1514.316557979164,1276.988364277514,303.3977400024211,8175.930959974423,-5477.667641635981,13773.352412141334,1496.4657682734955,1291.968989814264,326.17876125403336,7517.637904257816,-6245.292382683944,13561.776570679885,1498.8635635923315,1293.0144379808924,300.6337976326771,8668.637968825577,-6184.97298424438,13906.15120652951,1499.3310225266507,1277.1895903260584,309.8640937834782,7031.650068063661,-5786.8192493702945,13752.775074840029,1488.354221514615,1279.3969757471325,316.3949613934388
7588.0,-6352.0,13776.0,1412.0,1157.0,423.0,7391.233726691745,-6883.951059339373,13681.818389803308,1435.8428542304796,1170.888070789975,420.9626304469364,7612.597694792427,-7015.10680349601,13978.611986386195,1413.4700089114147,1157.4121420302426,417.44024813303474,8135.048051892605,-6905.3380026050545,14277.602628162635,1413.3672333433408,1171.4321060647294,420.49812553177463,8006.227720868852,-5987.021384633732,14963.20506389361,1429.9792594960854,1140.1588264025704,415.5047359508369,7833.847716971132,-6780.181451402874,14254.240580658461,1410.8276114516423,1162.7553000170838,431.8188525845518,7161.80442418852,-6586.677421817167,13561.028641635454,1414.7137888518807,1163.3257217966293,421.9646484932313,8056.174112422861,-6380.108795009701,13136.308109024294,1410.844703068419,1158.3789798929663,425.0692261978552,6960.838540344224,-6812.732211515533,14375.389338207484,1419.1518713263351,1157.9224808123492,417.7145985626473,7168.903518796027,-6591.642844444311,14564.034133448273,1419.9041083422348,1158.3826361166457,451.14160685259924,7887.382558068149,-7414.492430420325,13119.84008350808,1400.3867447860787,1156.4606885454975,411.1956459898214,7197.977867215258,-5933.382303026145,14077.606825683893,1409.32237935262,1157.200868345947,416.07951898551926
7732.0,-6360.0,13792.0,1614.0,1161.0,377.0,7673.326241752711,-5837.585022584994,14326.32548749542,1600.5422406406417,1155.5826204607345,393.24018143282126,7529.698571165219,-7084.12127725815,14070.197767470889,1621.2483672604694,1174.1980789513605,385.7711103177061,7882.372131586986,-6472.391665931764,14189.86755006835,1606.7628184362998,1157.5799423310468,382.90266939251126,7801.927969610279,-7092.949574477437,12900.647988683262,1628.7881570908896,1170.5515171356685,380.54380165790855,7804.939190922734,-5791.910848948317,13405.329334678856,1607.977934502888,1157.2526033158554,372.21129201277137,7329.086970250682,-5964.105418297596,13862.865176407484,1625.4645921908002,1162.5555262618518,386.69255985333433,6973.3300572888675,-6749.570877329666,13269.891885512214,1596.5375725389529,1166.2560076934842,389.7741259949231,8244.826533567764,-6767.002527705787,14032.430611182906,1585.3321547012185,1156.0084811545096,361.6027360644689,7730.939592883276,-5148.627225993125,13997.374554641105,1603.2421542568125,1155.2262909560134,378.4272346728926,8301.559943238686,-6255.967868029495,14299.793078166087,1616.8343316723833,1177.438869392228,351.72206481527263,8496.52636436662,-6051.4630983489415,14798.056573841792,1615.432294186582,1165.8546339430618,377.3876948411688
7624.0,-6288.0,13660.0,1773.0,1316.0,295.0,7179.4681609425315,-5459.451683195825,12830.159358655137,1781.6516331761768,1306.4862697247854,302.4521862656976,7527.977723087121,-5645.092636184013,13699.16824531858,1769.4902502559141,1301.785546704398,309.4510528257445,8193.857446913215,-6104.772522464564,14782.719342351145,1780.3598323869987,1339.0192259681166,315.8368171327558,7426.380969499026,-6238.714665146347,14317.54163556295,1781.9964310819187,1316.3806883638342,292.60585788105993,7204.5608993582555,-6245.453237027656,13419.606420383729,1770.3862439327258,1316.2852741712547,278.72953073010274,7927.623720517971,-6306.74995295943,13848.651510792894,1754.2294218671898,1322.9086964786563,288.27060102295826,6828.5847333845695,-5445.139623673154,13821.301940823518,1787.8571217564424,1300.1900440908223,293.9835486174021,7317.240001775417,-5987.58646820928,12829.479300642308,1785.4009666976601,1299.3399740704297,302.27864338410626,7871.081266112593,-6068.9512911483325,13252.76157819212,1777.310079010763,1303.8523056637373,292.59065445247427,7402.23246455785,-6271.873799400312,14236.189481521184,1768.3746352605763,1316.434823960978,313.48095941799403,7395.1000718131345,-5755.236843815273,12735.936595365947,1774.2891243055938,1319.2108180649714,294.7591888028298
7480.0,-6280.0,13760.0,1987.0,1415.0,235.0,7120.8554174386045,-7370.528166384858,13055.346550927128,1979.3179335979555,1415.6103872448282,248.80304727220542,7062.636285475717,-5555.5445625266475,14061.19134699881,1982.916980701125,1412.0221023520603,234.3417266399466,6793.824290996821,-7068.822770037867,13241.115891054369,1986.5709810127657,1408.4115427157099,251.8658644824747,7513.46874137813,-6613.07067188132,14209.729262538696,1988.7802272550875,1416.2422690572976,242.14632115986356,7134.980960341506,-5065.677251842281,13787.722273431433,1971.187948545325,1421.2699436869252,231.71093659842097,6714.664546524189,-5899.058039141859,13627.471584519859,1996.976918754065,1409.1114334246581,236.42825193338797,7953.390985116023,-5984.747043988885,13302.716697925702,1991.1138041195684,1436.8072038771652,234.60260510417297,8574.919518630704,-6577.893091235916,13306.253982704819,1986.934023016202,1406.4498554165964,246.30587029662144,7315.122606114172,-6044.229644314567,13430.141534663504,1991.0651310269684,1423.370444395177,233.7843885629403,6402.602377206445,-6354.212089039894,14825.333805129882,1976.8421945638552,1409.7127808828623,245.0114486169285,7612.254710448647,-6103.3441588581745,14067.251511555824,1986.1463254409953,1417.7958584518326,227.28466648582085
7492.0,-6148.0,13820.0,2041.0,1401.0,166.0,7734.084384203147,-6462.557851139556,13871.086752225898,2042.0471122068884,1400.866856114129,156.6486510106553,7932.570873840837,-6632.453805093903,13938.749648759684,2033.8514957780762,1398.1279580199557,176.69401030230367,7490.3681669727075,-5900.841410051076,13625.581924537704,2043.1570162452047,1394.9739729485696,156.26832956082688,7228.466364922191,-6787.520513599475,13426.396426727128,2039.3462729101661,1404.2442208443745,179.3881831054902,7163.56675466382,-5197.638505485614,14038.827317612446,2050.2465932184396,1392.1663624615258,164.20634363402974,7253.7518056400995,-5997.12956868427,14234.52999951703,2048.425535535624,1402.93811454782,152.22221265398125,7581.953874192912,-5551.352865170291,14061.450529010732,2031.8680145509777,1391.172012626043,165.83692633804426,7280.190229084613,-5635.560260189765,13679.970539569718,2027.3041778303616,1406.5695208427871,171.8567275518791,7702.515857278887,-5817.170148365266,14436.04073503446,2044.2290908184318,1412.5460182752959,180.9468443764026,7343.589107291186,-6974.229909979733,13411.040900946626,2036.0592152749866,1386.800700168428,163.42427561721763,7297.875742046335,-6705.028897982164,13307.644885441368,2040.3774509212592,1401.193677101467,179.7148955113337
7504.0,-6152.0,13780.0,1856.0,1339.0,206.0,8160.487195416899,-6085.0814439264195,13727.031305505161,1846.7545703420176,1340.025286100196,205.03255826809368,7391.43817962076,-6116.755830734379,13646.62471030584,1855.2777085621435,1355.7509152026064,198.66982797015243,7707.802294500671,-6054.042530962832,13319.3699405223,1862.5147735312753,1330.821378483135,219.37689192730053,7887.601778035456,-6316.918749061787,14770.081355882803,1853.8551688346324,1356.40656191967,207.01305734377985,8452.641899489625,-5896.2446742905795,13946.068792230306,1869.434674756049,1352.857943394348,204.57012144275788,7356.048653575821,-5477.113164304656,13722.522682023218,1858.1921384791447,1323.5164594108867,199.3017907528032,7571.444185714884,-6531.692852826757,13812.171671405846,1860.0178357209186,1316.2893713179744,202.4042402823107,7318.490431131313,-4735.844361584588,14117.800247585856,1857.2299456468293,1343.4440704459566,204.80358522443964,6950.933497729473,-5647.392998767774,14503.904183337096,1862.752533369534,1339.5287111013702,207.4648128863182,8052.636555850131,-6059.594064533101,13821.008696201781,1854.8131938390843,1329.180931893841,201.37553512837982,7120.733170114484,-6029.56463756746,13589.010548421658,1852.7867731850156,1353.1477524598497,200.97207709888073
7460.0,-6176.0,13836.0,1735.0,1301.0,295.0,8442.951802049512,-6461.415326066208,14979.964300906586,1729.399524959009,1297.2561485372025,301.71196390654137,7556.47797126919,-6215.487657077634,14822.482793960602,1728.451670125168,1284.5382479121192,308.275681589918,7416.479965184497,-5633.579972655589,14093.470799402174,1739.4552025119478,1306.2139155310215,275.89632690026315,8201.090289645797,-6919.2685250457225,13911.365591543774,1729.8055954775689,1305.6963713355383,295.61122011836244,7849.526562423798,-6769.510252056561,13835.89441355821,1729.93671154272,1294.643466135076,289.37052885879444,6690.094217707824,-5889.353559977552,13840.885996425735,1718.6909615697273,1279.3199149034983,288.1734388465937,7302.984463848885,-6393.657240481966,13549.002461683986,1751.4289063176675,1301.9861718012435,287.25321149136846,7078.942371570233,-7100.77762704191,13575.516428232802,1721.441364349165,1293.419019689503,311.6723857721595,7099.728871291729,-5834.687985965815,14365.41782658591,1721.4357577622297,1307.3633052551481,284.2776439633256,7772.6121989415215,-6614.707084896309,14434.141716918837,1744.1355473155068,1313.4984365585105,299.97791119059866,7523.486390256216,-5883.32540250148,13985.274606990319,1745.5045665463888,1304.7504456718827,299.6630333499316
7500.0,-6284.0,13708.0,1724.0,1315.0,306.0,6650.813895954992,-6805.244805482955,13358.24312658087,1703.6566338376176,1330.9539201325663,297.36174845247683,6898.850153981677,-5501.713183636389,13266.012610426715,1713.7714506634077,1311.8903390738524,310.5181988777162,6854.082118522582,-5938.514541581375,13419.646451067736,1706.106734958557,1312.8039365932893,312.2133365260619,8052.654700276048,-6786.780132992307,13337.189752587023,1712.8419099775501,1329.7062919200553,303.2877276722093,7950.909447118024,-6204.008164288662,13647.05754407697,1712.9414123499055,1319.1776851169298,312.35279037266616,7365.876423544615,-6034.349567769931,13378.448073352638,1724.861387487618,1307.7975956153625,293.8067488155355,8187.645253898988,-6166.708841400625,13280.064667530896,1731.894119128479,1325.3399084569455,314.66944071495277,7864.8943952080745,-6559.068253511298,13956.245075061985,1729.6070722049808,1325.0082498773302,294.13666464531116,8261.40622047606,-5645.040608649821,14276.20746814446,1718.6226612724024,1328.7448250202408,305.60935380199146,8085.703019854802,-6195.018612650512,13209.935812494847,1695.409507384607,1306.715786998474,299.6490892706403,7198.688903264723,-5874.0566910620655,13612.586502775948,1726.3381978025614,1301.224881346939,318.5482097364036
7560.0,-6160.0,13668.0,1650.0,1285.0,325.0,8334.90171733143,-6571.178161594089,12825.36783909103,1638.667434147761,1291.246956013953,332.0119168612497,7847.180068347464,-6582.063608834568,13632.589704178616,1655.257266233975,1284.9782233737583,330.1685656060078,6980.546672019935,-6167.951588033955,13209.135797189596,1671.7509079743547,1278.044933550766,315.3653423749002,8072.868370810366,-5256.425027903953,13893.728580757182,1632.681573726583,1309.797514493951,322.7119266566571,7885.96867907923,-5989.777307730666,13470.49820061217,1642.2476159686012,1289.9377847502772,321.2482308742723,8143.0916677148925,-6330.092310474432,13159.245673105012,1636.2574597600367,1283.7012367601196,331.95528393852084,6620.364814031776,-6103.464089212613,13290.919855482056,1639.592839818746,1286.0366298361844,327.11082733726374,7658.281711469594,-6261.58000680524,14769.545136440565,1656.3167895948454,1284.6691419358854,329.5536364657751,7369.914203225507,-6288.84742182308,14138.06178576843,1650.850955223216,1291.5016488568103,328.49193352072575,7608.755307801551,-5256.047435080623,14165.340184473627,1659.884922493543,1278.2685318754652,338.5001109939581,7446.582412131189,-5660.5494071091525,13210.919790824932,1658.678775645345,1266.3502398936362,334.20123263156296
7512.0,-6244.0,13564.0,1554.0,1278.0,306.0,7628.275485260558,-6776.131008719283,13537.552517876575,1550.1969591876684,1271.7521867866415,320.2910269531745,7907.952604203105,-6362.479777454639,13269.918165547755,1546.1342734960513,1289.6386070279566,309.77129178773833,7834.688296557439,-6980.61860837932,12670.006367733833,1559.2759093419404,1259.0741322546844,304.7839694006785,7404.173651089688,-6344.579310370914,13808.170891037054,1554.270317520796,1283.0501995040315,307.1403225796612,6720.06702714847,-6415.090545132711,13834.67621888806,1552.8434991263377,1270.7378543925538,320.84579052903086,7784.6470515743395,-6735.865982584445,13941.076685370706,1558.8814174021597,1281.4281637381803,287.8326783222351,6836.583069548942,-6584.342446603772,13400.884829264873,1557.9611831814696,1287.501328210608,314.2968247450978,8723.713477229054,-6044.278028964674,12244.180550376052,1543.6606272896008,1268.7103325107068,296.15572549546937,6994.756159804191,-6627.884133386719,14360.588839850416,1570.5208205646218,1271.6545078504148,322.66595825209936,6911.888541706216,-6341.993943931093,13670.17716638133,1550.6370932284156,1271.5096422832148,304.47476118902273,7391.59361364221,-6323.845124324528,14358.52661744052,1557.8057215210415,1250.4944189254643,297.6357191602721
7516.0,-6316.0,13572.0,1643.0,1318.0,290.0,6763.67881612038,-5975.341229453228,13795.381737185355,1644.4297025841167,1302.5015441670848,277.5572033656907,8191.883891696676,-7214.180853984966,13826.564362392619,1622.8501488240784,1308.5118248732247,284.9195712805975,8361.668095967689,-5145.283497702983,13607.963843020596,1638.6627130649258,1317.0003487955657,296.9219530233322,7446.325524451054,-5979.61027223061,13903.860565608942,1647.5275469447763,1327.9787818688874,308.00782245253015,7178.881828513962,-6827.727133572093,13362.176307039648,1662.4936489832435,1318.5548107223551,283.1573864397581,7282.542083545033,-6109.362673354748,13003.756353509032,1633.794816237824,1316.375856552442,296.5386735785471,8069.482919718254,-5937.152451856242,14528.016777844176,1646.6753107506368,1303.0340741997118,295.7782248390127,8071.761429173816,-6448.737801037184,12833.455564371801,1649.6728823444648,1334.546427124651,281.3425099014768,7652.624658436198,-5884.59865419701,12965.646398065022,1633.2005429872847,1316.0283200536505,277.5308987794212,8168.169123552324,-6093.234953497289,14130.74737730512,1661.9015436019877,1316.195449461954,282.4675181769272,6609.467587741618,-6316.682217816855,13653.419285122012,1659.471546192331,1302.7919147605285,284.359597976404
7600.0,-6356.0,13640.0,1662.0,1337.0,242.0,7804.25726545663,-5759.239361569078,13801.41226424814,1667.6508446689818,1354.7689656977307,261.2852792259178,7732.0702786865595,-6237.196633964528,13604.25572218536,1671.7242331706625,1332.2017297319699,234.56532547894258,8750.799200723382,-6702.210966995084,13068.804589922638,1658.9545545820013,1344.449288891227,255.8716552423715,7640.267640186358,-6739.172007045835,13223.927376778474,1668.3968492575825,1327.362073486712,238.10110063323054,7215.6702956222525,-6935.6581963347135,13807.839744874205,1637.297585599712,1340.708937137778,249.67741891260022,7502.596880948405,-5749.503834917902,12783.311647612907,1677.3496594327405,1331.8147855271984,230.76364821535776,7241.777706834538,-5899.949721895158,13507.287674113433,1660.2800050308015,1349.9394566780888,227.2965790927516,7668.356932300734,-6850.666733958654,13400.078645262412,1659.0620604648097,1335.911909594695,248.48070572329988,7648.360031456316,-6267.122587832189,13304.810266074363,1670.331184084592,1332.2613533134918,234.44079909347573,7864.735509003109,-5543.487086504656,13681.10237242289,1652.5298089616706,1336.7792042562537,251.50421119898675,7255.682627729638,-6197.894795796297,14095.644514880287,1668.332766776844,1314.7947872951404,249.0354586935589
7528.0,-6132.0,13704.0,1549.0,1349.0,252.0,7230.548451450935,-6467.299690318366,13873.57289629056,1546.9658998167877,1345.0304358724004,273.15495476982903,7467.437489868395,-6262.440838621272,14065.726865890112,1545.5145337075749,1358.1798564910775,273.02789307849434,7842.1738725796295,-6584.0386287908905,14255.232241801134,1538.8712898560786,1352.5838221705367,261.620571474353,6830.64174336514,-6752.140162151518,14248.325924722083,1556.5914896734412,1358.684793955202,254.22028301693317,6710.3845868443905,-5671.3462924704,12601.394751228183,1550.4114594664823,1343.4110093911838,270.0382027350797,6980.024927707334,-5471.376036611673,13758.661062600477,1549.8324793274212,1354.6253760459904,238.89552740325954,7397.195812948533,-7504.410610823089,13938.32413565827,1552.977711656325,1348.5645942727504,256.2700253793034,7512.562579735827,-6646.4700262173865,13235.667127891165,1548.493332235272,1349.4808275212179,244.9735783221456,6925.822872299492,-6555.794636471159,14237.580411569294,1564.0745435220226,1345.062330572002,251.80132954557482,8091.0457478330145,-6410.373748161266,13975.025975818411,1555.8045567782385,1356.0556368671278,239.5985873306087,7448.374419145891,-6090.083495842049,13395.94262902627,1551.638906342993,1363.112567979076,238.81597527554055
7544.0,-6248.0,13668.0,1368.0,1251.0,308.0,7012.18986622783,-5871.693598637083,13533.984485616824,1367.1923209369345,1262.6803167246687,304.9040041012583,7560.0100242716835,-5594.042912393464,13176.458242287734,1378.4742843443264,1265.2386838549758,311.44667639945465,6845.472425275916,-5755.258737380136,12799.052387324351,1360.5912294047118,1260.599142430165,313.337421845541,7288.999801170147,-6031.191423781844,13013.370652271278,1365.2656850895034,1245.6208491348789,323.2995918954391,8473.93910673007,-6793.680437969562,13991.151158544899,1366.034665155545,1250.7032548873417,300.1316878208496,8389.157691816463,-6517.862252550515,13683.319309262199,1378.3250249458533,1250.749780172092,293.84585691076114,7676.35436083958,-6597.640651840114,13196.530276378935,1374.726079737641,1240.5666192729777,325.3854576935236,7286.949416877254,-6325.6940791453435,13784.620775725522,1369.4943798064887,1250.1998577830657,294.45355183828457,7830.681949506171,-6603.270233688801,12795.426783728788,1366.0745576118893,1248.437158366149,297.0345049715218,7454.942421076877,-6108.325223747663,13287.107139935237,1367.337568864319,1249.4570234541975,324.06822616500517,7317.711840277744,-6106.430110393936,13766.369701724778,1361.0645971401068,1235.4132750364456,297.89998545823414
7620.0,-6328.0,13672.0,1421.0,1201.0,349.0,7790.746030298996,-6555.861467808106,13670.143698900096,1421.7213848640927,1204.184228141181,356.83701430337976,7643.574764741105,-6537.743110686069,14313.995234253762,1430.1515408228581,1182.9450664243502,341.3133272110252,7965.972594961225,-6609.645128061272,13642.05638340951,1425.2122753503356,1205.6087398806437,350.57358404040383,7460.44614734175,-6440.024961496515,13038.414249407448,1426.9610363616673,1201.331774584436,360.34971710445245,7326.106795552014,-6368.325584240801,13768.365224651,1410.1848416466764,1188.926519288805,348.3112237775488,9111.87195767098,-6775.845965772449,13763.36459806272,1430.0803455047858,1199.4850374698983,363.54528024739426,7404.447749006119,-6276.363840821818,13092.795859534497,1409.434226657902,1211.1234346564263,352.3286431386858,6954.303521164817,-6099.60187687785,13454.969887719943,1417.746867796182,1195.34662814863,355.8722867150157,6882.617916801566,-6498.440013340161,12811.685693474135,1433.2299708434998,1218.4571177627863,354.5716073972168,7670.859491871889,-7162.540588484168,14061.510811067765,1424.287454556102,1193.7032348750963,366.85841327306116,8387.42821148357,-5742.996638287039,13138.658328856023,1406.7141613007432,1193.1675172684782,344.7178874183811
7652.0,-6444.0,13704.0,1596.0,1290.0,294.0,8159.469773770226,-5737.333138766783,13786.398152062839,1584.79061427466,1290.4076953506903,290.25345982165993,7653.848101515578,-6615.59057000709,13002.817335344056,1603.8230240770642,1274.4154478335681,281.45838335454147,7431.2536608246,-5751.692068361882,14577.468356207766,1620.3196089924331,1285.24295963319,312.2389284326467,6985.962231582453,-5909.379005688434,13278.87020652678,1604.428200808454,1283.1474154365656,272.8542418347445,7534.175434944994,-6583.698145544025,13391.150784665437,1587.7593844324078,1303.9120921022002,300.6983360226864,7506.409255070299,-6742.580214590531,13456.490154081284,1593.4892062917938,1291.087802176231,283.66440718660215,8471.908509440054,-6184.756755117255,14251.549225668228,1597.283731240135,1294.1759093895744,291.9592112699104,7538.103662894824,-6608.417265298727,13194.381814604216,1579.2138881094795,1290.8923080831446,289.8543649481802,7591.398622750419,-6268.497710489927,13141.984878332509,1588.641210818277,1296.2600635346203,293.80344685559726,7550.934948712836,-6632.659944910596,13577.52508296133,1599.8932683167407,1289.710221635643,290.0727504121822,7880.483561774618,-6320.079801554284,13316.620505786603,1603.1265794111184,1304.1198357042817,314.06142863649063
7572.0,-6428.0,13604.0,1709.0,1389.0,211.0,7703.838833249546,-5729.282788716203,13688.544477616651,1715.3576114393234,1411.6069832145654,204.7895788597379,6800.632683003434,-6898.23791049666,13829.077364583607,1715.1756819740847,1384.088584178442,215.01594075251535,6554.7060244525255,-5361.954200443333,13051.029703576578,1715.626565485079,1399.4554499578144,203.2951226410352,7273.701297406834,-6268.9534328466325,12983.270544403324,1711.0067181800825,1393.5118395077134,216.346101757567,7125.824915681631,-6622.005910962738,13628.09167689038,1708.0402362091595,1379.8271390315376,205.76613469336843,7378.851559743646,-7120.916411109802,13403.75470096415,1726.850790918688,1391.9232906148102,212.5477155324149,7505.611141395848,-6640.043211592741,13931.592578793989,1711.0000986426212,1395.4776555742308,216.67689727731704,6667.900034509126,-7059.23442490894,12948.507528289894,1719.169471485976,1379.79756067762,205.51688016574175,7886.300099787254,-6314.354355289414,14182.261235071219,1709.149957271844,1380.4640066368293,206.1327920437639,8264.349215363793,-7227.313892582973,13784.345599420887,1711.5307557363922,1386.6850987868565,220.78206193667464,6429.548282191359,-6846.495856273362,13022.010791541124,1705.649158135284,1406.9969049212561,201.99566868487148
7488.0,-6316.0,13672.0,1741.0,1402.0,239.0,8262.890738987157,-5874.9311799233765,12720.091595736,1731.5379246801335,1388.4921127484265,244.74429852514666,7902.1588899740445,-6273.942530214372,13985.35675779197,1747.7371040139953,1412.3987704646852,228.08875208334422,8053.635791680759,-5596.038607977197,13421.223388166538,1744.9101624585378,1398.3858998591743,246.86954737055035,7326.984211297612,-5260.305373128601,13951.753495855393,1752.3078477481833,1401.348418907847,244.42115070516422,7023.575114473127,-6129.388516919515,13653.32105735476,1748.2976741019158,1382.5622161077545,230.07307921231637,7472.348238147274,-6594.461732541118,14373.19032452201,1733.3647119123254,1409.1988895271286,250.44029565088076,7144.355398919695,-6277.2135992669955,12944.608032307768,1760.6469623038306,1396.2925297412778,221.02348306873995,8183.302495678901,-5906.580613986385,13068.469498203518,1748.3630608002009,1412.37269919188,247.19165928023648,7452.495653735554,-6264.616386511334,13296.741983601485,1739.0398049787702,1411.9143671367415,256.781238574473,7563.45848805509,-6729.994910808827,13160.208823820605,1745.5348799679064,1401.7516478242924,231.7452903199732,7394.336458509489,-5788.020959297169,13889.892778513924,1743.847096244912,1398.393394662852,237.43432960204262
7420.0,-6284.0,13712.0,1549.0,1354.0,304.0,7827.878427265942,-6496.057203609985,13887.778681412341,1557.6880406906678,1351.9894151977821,302.60804194299754,8175.895446501885,-5818.95432117627,13430.802515514162,1550.2876951399917,1361.2041123292572,310.8168928088173,7336.2949408565455,-6176.265418702062,13532.265315428118,1557.6392114042808,1347.7072667058567,304.1649213470698,7365.248491463188,-6387.713911184614,13605.764982307019,1541.99071059886,1342.4222282379021,292.18013293634493,7117.805259434966,-6622.503521453295,13751.125168903505,1540.4543290213812,1339.7803527534757,312.6174876077887,7923.700709617099,-6095.660849651352,13550.285295900054,1546.135882886689,1359.1453388798086,318.01368004000943,7248.770274769487,-6526.927847912562,14176.189546117019,1558.3244387759687,1339.885103145119,311.2789426869114,7051.262310806076,-6322.337467976543,13398.784895777859,1550.7713499073545,1355.7682195562948,301.563125627539,7737.458941946626,-6376.19284140779,13785.155359081915,1557.8181663044882,1363.881990836994,303.6423595615747,7790.136758780382,-6326.030126688735,14101.691104938584,1562.9690868754117,1362.4251895404996,313.03702210900536,7850.615639626585,-6084.091939420853,13508.24369638887,1549.9783611893881,1362.9270681068158,308.7049157054237
7548.0,-6380.0,13676.0,1535.0,1220.0,334.0,6807.506956245252,-5932.325856926538,13019.32333110156,1543.2648686698099,1224.9998007919905,320.92380118493395,7062.522144893403,-6395.123523919944,13826.190641997866,1527.4802259538005,1226.4167515003269,342.06693305291327,6875.816521048849,-7552.350834730831,12797.59365653872,1502.494821001224,1234.677842700782,322.8614709226278,7373.1764116137165,-5611.110625493233,13779.712065277097,1534.5518551855068,1208.9584185360372,336.9220464014462,8781.641894654458,-6945.476797165764,14078.508526161835,1552.8070033974616,1208.444434299548,324.0343191561619,7272.239124467192,-6335.949594976311,13673.842170418584,1522.6780433335593,1222.8387105759923,314.45524657301144,6495.770242227701,-5766.154676774434,13906.456489175447,1533.859160603031,1240.6141233308979,312.85316276807396,8034.835572195041,-5772.975932105262,13193.29251618229,1535.5288087963754,1228.2838301497625,335.28787181241916,7785.8890231493415,-6721.028472077403,13478.43931661048,1536.3158392515388,1211.0324097274365,325.7565591615449,7287.378809585029,-6362.759555776925,12378.711146114752,1528.9469306133656,1212.3494206707335,335.2292843492862,7230.929927163224,-7807.580349926731,13286.982750874009,1537.932947851474,1218.0635031118602,318.72005135663585
7592.0,-6612.0,13520.0,1809.0,1253.0,298.0,7389.418039768644,-7188.590758607333,13672.402127816977,1812.2640298855367,1259.0007614634544,290.4955715184189,8115.437384531862,-7030.6475884179745,13195.533469724545,1813.6475295573448,1251.1443495904055,302.46801099043523,7678.194646616177,-6684.846851979921,13409.284688318969,1807.954822332763,1247.2913654495821,295.708045797301,7098.920247811861,-5746.417046023744,13736.750823955306,1798.483162435443,1245.045514743781,295.85213965266297,7237.967887431398,-6741.030930563015,13608.709080336643,1791.6881902198752,1243.121993438596,283.1944077413958,7216.369838640895,-6416.111184359408,13143.688612817408,1799.9978271945135,1242.581891669196,302.93741483816416,8415.044409588985,-6143.1646372972145,14567.766475062563,1816.6643898644913,1253.9844977786609,296.21885523109904,6905.189796459482,-5895.594877825449,14652.926531303736,1816.4047900993771,1267.9148115863866,313.6642918406739,8135.894525011582,-6676.222165613154,13756.72655374402,1815.546789272044,1253.0931362244949,300.0540714142866,7937.953145466772,-5885.676118892446,13951.228651616751,1821.6357607501136,1233.854272271118,292.15351585750693,8094.260868018447,-7008.086955259146,14751.406460730972,1816.3218094963177,1250.2849612464381,275.52404919092703
7492.0,-6368.0,13688.0,2050.0,1262.0,234.0,7201.528762855503,-7160.636784604391,13147.945788043146,2054.631246484866,1256.138259636194,233.7218022947592,7326.4538882589695,-6609.97669768802,13425.608614018845,2049.1549610589577,1261.2388978939014,252.43606804175846,7164.866622607853,-5852.497000089934,13849.222425814438,2061.4502490315112,1251.9178589769683,243.1898439846961,6927.1744984825245,-5896.836301480675,14309.679557888321,2056.9783465176565,1263.9381951149783,226.1363281160844,7737.6154727197545,-5974.386923208072,13419.041540797782,2054.6675039664447,1272.4798447233577,224.97251263084175,7420.87083944572,-6257.580955653496,13490.962255186852,2028.4367182277954,1265.2781263303389,235.46289500920884,7431.9104958521675,-6424.87859957876,13395.493975225028,2049.226303700517,1264.86717989353,221.54885732072123,7255.013464457805,-6927.977138250766,13540.950752089313,2043.1759517305309,1271.4211590559935,238.5707898159355,7128.742399599383,-6049.514636777595,13757.036238061357,2060.5300688109546,1273.1044065166814,237.35002812110469,7136.729667435791,-6246.128277276341,14644.268000171985,2047.8129086156,1244.3990717408014,232.29234761225354,6775.650740755,-6104.65677449457,13878.786086846816,2040.38132239384,1269.560264256233,230.0940142658458
7632.0,-6316.0,13620.0,1867.0,1452.0,-154.0,8669.214563271213,-6287.258574376613,14275.598994559146,1868.5270176788156,1460.1184421465675,-145.74827658229222,6917.074616123728,-6292.5904640255285,13290.740799431374,1851.7724191134037,1454.3938811668052,-146.8146824238023,8609.518042668495,-6011.949681814665,13725.399072114324,1849.2689677655542,1463.3363088745352,-159.06268800105767,7853.158013993667,-6565.219233937447,13796.019159224656,1854.772608126366,1447.0236462494383,-134.7336430815172,7783.877047805189,-5922.715667929636,13708.64320480958,1861.0404259579745,1445.8282529519065,-148.31329842035836,7202.891917850855,-5949.65951471346,13556.204981382096,1853.1526559873803,1467.4301079821696,-166.92599778528879,8279.720549964548,-6118.680357392739,13433.580044720886,1860.8010055692714,1455.088101120173,-142.82708720588968,7046.355239976032,-6544.0290900796645,14187.175648763718,1862.6239621053485,1436.4368445981731,-146.0134053537157,8119.8756542610945,-6905.304390873188,12923.850387274902,1863.9151386804463,1452.6446645925164,-154.77416439323693,7441.537941445631,-5920.5278814318435,14224.58016909465,1860.1945586877146,1436.3383546489156,-161.88257341760405,7982.597801458678,-6903.425750406637,13545.69759282094,1870.2896439624076,1451.536042964343,-161.55067080716864
7460.0,-6128.0,13624.0,1731.0,1289.0,452.0,6912.540036587357,-6736.484633258215,13262.909822173573,1739.956100862378,1300.7795842730754,428.97228665226316,8245.328080178233,-5119.818059198173,13788.103520718469,1727.773406825211,1303.923396573048,456.6677125287396,8210.474899555875,-6576.105558929366,13368.189535034735,1703.8612707831087,1295.395585077089,472.17111802828975,7140.308460889738,-6090.786290193654,13284.518275379198,1729.6605171675033,1300.2812009956087,443.19435701788325,7563.977205457849,-5768.207484325368,14073.004132225411,1712.8841540669882,1299.2370415278608,440.36891770506634,7478.8040035668155,-6075.1571852308525,14078.872919834297,1746.146065384587,1290.26999729833,420.1912384844871,7870.501697096717,-5446.960360798425,12410.900438508668,1712.2990288757485,1281.9871225102154,456.25177996816467,7604.943054193331,-6286.718325218655,13777.901249744296,1725.7035396794618,1275.79323917966,460.8350740199111,6680.981311061798,-6010.783163070775,13410.612107802284,1731.6041490360074,1288.7440288069276,443.87631266438854,7918.56607437691,-6534.827864546411,13834.585463017827,1731.2483125019598,1306.9717534835904,470.9865573633756,7573.220209723556,-5956.873873138527,14183.746837855479,1726.8862824098117,1284.9229420041797,453.2307959136004
7520.0,-6380.0,13564.0,1743.0,1235.0,476.0,7779.792251020194,-6819.124919391318,13707.688549953073,1748.5100939995855,1237.7741829422864,487.38684719304655,7120.714077189425,-6646.460902256912,13632.482039670875,1751.4075626946626,1231.5680378536115,476.01034944293997,7923.099872176045,-6187.378930774146,12977.864378858618,1744.372632748323,1239.7066182968679,465.92209435758946,7275.768739009645,-6165.49376762221,14134.516797250917,1735.8517523681755,1228.5250876079529,482.27500367656165,7939.57266256065,-5577.8677190494545,13071.82896705369,1756.5612983455874,1225.346672200935,479.4670065259417,8266.9715543565,-5317.591468928579,12777.845836539167,1755.315470810011,1227.6688151709102,476.6655719449043,6952.439750238642,-6668.994296323584,13944.002525297083,1745.6320372414414,1239.7146083334962,465.16135132605416,7710.1504346220045,-5655.729119425806,13305.398324710819,1735.864869145411,1226.6127959529767,471.3016534009209,7242.285101850673,-6159.329153203189,13122.16865587494,1753.2861289803614,1234.9919574487024,486.15585400803326,7548.0214375974165,-6145.464594696704,13453.110891029251,1729.1526256495872,1236.1491239428683,470.5359192770728,7404.462693822221,-6217.777441324942,13437.500923409687,1733.005037402959,1242.6229112860387,481.99527557660537
7608.0,-6452.0,13656.0,2028.0,1328.0,237.0,7862.026228387906,-6525.502897696616,13310.164535315058,2045.7051776843293,1334.4456281654066,250.2025083624366,7624.7202698019455,-6705.3375833866385,14191.37679949496,2043.0813217345997,1330.0596943042021,240.4153262734183,6762.776113294845,-5993.08807169959,14112.280297926936,2016.1166215912813,1347.078475163693,259.98882927468196,8862.182552012804,-6289.203630152441,13128.807378029029,2019.776343340856,1316.384844112916,239.41128424512877,7860.405607081357,-6124.463908202514,13332.635162214843,2042.5461280438897,1335.2452139678958,244.10388753337625,7501.637461070728,-6045.1164736656465,14182.600708353017,2027.5019384489613,1334.3593445249671,238.36839427516492,6988.2237840332655,-6845.610215807121,13892.554809831252,2038.5407199049116,1331.9577295674806,248.86173570137254,8510.676261699013,-6650.043844962421,13145.926411827333,2042.1912466881304,1334.425424231804,237.61398333011172,7345.438295386793,-5960.910970075504,13669.9824348244,2029.0033812475026,1332.9941589716586,249.2912082539201,6596.383422420656,-6393.340739829531,13436.655027065146,2034.688395341386,1333.721005471773,238.02015719481892,8390.803540778968,-6847.89794680472,13741.618400004178,2012.6603681333313,1333.672098671338,226.02756631307295
