IMU1_AccX,IMU1_AccY,IMU1_AccZ,IMU1_GyroX,IMU1_GyroY,IMU1_GyroZ,IMU2_AccX,IMU2_AccY,IMU2_AccZ,IMU2_GyroX,IMU2_GyroY,IMU2_GyroZ,IMU3_AccX,IMU3_AccY,IMU3_AccZ,IMU3_GyroX,IMU3_GyroY,IMU3_GyroZ,IMU4_AccX,IMU4_AccY,IMU4_AccZ,IMU4_GyroX,IMU4_GyroY,IMU4_GyroZ,IMU5_AccX,IMU5_AccY,IMU5_AccZ,IMU5_GyroX,IMU5_GyroY,IMU5_GyroZ,IMU6_AccX,IMU6_AccY,IMU6_AccZ,IMU6_GyroX,IMU6_GyroY,IMU6_GyroZ,IMU7_AccX,IMU7_AccY,IMU7_AccZ,IMU7_GyroX,IMU7_GyroY,IMU7_GyroZ,IMU8_AccX,IMU8_AccY,IMU8_AccZ,IMU8_GyroX,IMU8_GyroY,IMU8_GyroZ,IMU9_AccX,IMU9_AccY,IMU9_AccZ,IMU9_GyroX,IMU9_GyroY,IMU9_GyroZ,IMU10_AccX,IMU10_AccY,IMU10_AccZ,IMU10_GyroX,IMU10_GyroY,IMU10_GyroZ,IMU11_AccX,IMU11_AccY,IMU11_AccZ,IMU11_GyroX,IMU11_GyroY,IMU11_GyroZ,IMU12_AccX,IMU12_AccY,IMU12_AccZ,IMU12_GyroX,IMU12_GyroY,IMU12_GyroZ
-4312.0,4884.0,15684.0,1894.0,1343.0,145.0,-4250.49577909017,4888.649945138462,15702.147612610024,1908.2035212047444,1362.9438224307698,132.1230841385631,-4284.515190109827,4665.350464541067,15759.747125758788,1863.8011260126527,1337.5884066660863,148.5255323037265,-4281.444190806001,4753.6284134002535,15668.16672031132,1865.7488941089964,1347.9834702076207,165.95647797589504,-4270.6852132169115,4808.8232488505255,15838.938847027457,1914.0954820542336,1358.2215278112685,160.26576389838604,-4382.074003926293,4772.467808745178,15663.450504725017,1893.4365657817589,1357.0664223666647,139.6794799674908,-4259.91073712637,4740.724632937947,15532.192104413181,1897.3202819345972,1358.9436286384203,130.93163096106122,-4547.924760234254,4846.875168408706,15605.128166087381,1907.024741934304,1350.9390204459626,137.90223553025666,-4380.296814626085,4869.128355689372,15633.100950228696,1881.8009121768537,1350.0831182591676,137.23094443795335,-4304.504549492935,5138.697229009629,15848.775522674274,1907.1329964037864,1348.4734719599505,151.1049449684609,-4334.759409310578,5052.773385087661,15696.018774145377,1887.3906909557654,1341.044465218375,152.34911552502408,-4190.3081614096145,4863.795344604925,15820.25180380819,1886.1962150164518,1343.4121623490196,133.8126548008298
-4160.0,5108.0,15684.0,1804.0,1405.0,98.0,-4094.9257967641997,5070.244273661088,15698.201530035152,1787.4939436264235,1412.9673739397629,92.96230459040407,-3971.7588402014153,5101.71514541847,15687.85575296175,1812.7957095404684,1412.3824153349735,111.3430469138639,-4189.330518634271,5082.758037600522,15675.84791520732,1808.8240469957166,1402.4711211002962,90.88324114260143,-4131.238326042107,5051.390401692826,15741.534529076192,1825.9837739353306,1400.892780847372,100.20541934443176,-4121.49495400373,5127.544241428222,15622.569533122158,1801.269017918939,1406.7092523489252,103.38682897403174,-4217.589985418597,5027.61314608697,15832.871334987978,1810.2827955906073,1395.6189569133342,101.24549717489282,-4135.745195625455,5149.510661612827,15808.262386310853,1819.2507478280338,1421.3752119084534,105.53117919550373,-4162.476820576767,5055.431536945149,15613.08902921053,1823.3880723873947,1385.8911357332759,105.64470896789929,-4028.171619363151,5161.533300746881,15701.67485327498,1799.8292808368221,1405.1293094218624,107.71890771698948,-4193.910594081475,5189.852668900761,15660.847837622661,1805.2158529616556,1397.4125852363793,80.71499067270777,-4177.249120741454,5059.7558329149515,15716.08298427717,1793.6803313119512,1399.9808657973072,86.64393478723464
-4164.0,5016.0,15736.0,1634.0,1492.0,40.0,-4139.688434666098,5058.668822470135,15724.805974939854,1640.0723777795793,1471.563479333661,36.609902326469474,-4327.677165883767,5029.100372353015,15605.790246757322,1646.354601639368,1490.5406196303613,37.413205960906716,-4313.223743844358,5080.105482938264,15627.600708303413,1628.5794629792274,1496.54211646988,26.269724847979617,-4061.4827604068932,4983.017380648121,15674.461391630297,1627.5317522091614,1480.5553595601193,57.8486130515974,-4149.729086182302,5017.380508821879,15739.556637844815,1637.8779748525208,1520.7803118191393,31.885598399912375,-4177.8353152896125,5094.612400510261,15549.67274559807,1647.8845716336173,1489.4924086496758,35.287586363302225,-4290.14053739567,5065.000064870101,15729.401092357135,1643.5092406161245,1496.376853342147,32.477431189398075,-4259.950294979406,5011.895595829616,15873.504154906235,1643.751979470864,1490.406517632136,28.53249727971892,-4349.607467508271,5098.304106348735,15825.9883239125,1626.822213956512,1493.7315314835053,48.43086460941126,-4425.904678353554,5027.227952435261,15837.008168111784,1654.9425488022184,1486.651316334999,42.59206630193033,-4081.971391613083,4912.7541313220745,15764.414036797227,1643.114665079253,1499.154526266448,31.36270751979692
-4256.0,4884.0,15732.0,1508.0,1504.0,11.0,-4231.788793488152,4882.3800706650645,15760.618604268495,1525.7019857782343,1491.2494063286506,14.936289880969467,-4386.3853254229325,4913.606495352195,15762.06288065531,1501.6115719234149,1502.523126253299,22.17686619006364,-4213.354010241712,4948.6167898515005,15526.548716974294,1496.2241236555437,1482.904459371349,16.46493384992175,-4166.620143072672,4790.680411351329,15660.615978819997,1505.5017680901644,1502.3374813854405,10.487883159916612,-4366.086957582956,4809.609602856933,15768.645580311853,1525.5201251491817,1526.9798925087052,18.03912492305369,-4214.601113824865,4925.839217941588,15730.582636021614,1501.4922139362304,1519.0607264757266,-3.948484658818968,-4169.132305192991,4762.052752723332,15755.782124283556,1512.8648239535696,1515.3105761029137,-8.968145933285971,-4325.375437635691,4868.047658383149,15820.61663020684,1516.1432969557186,1489.6829655586173,1.3911890983967243,-4348.381170522902,4960.919523723069,15691.990033773176,1539.5239083629783,1499.7955560851678,24.472100646241977,-4147.526252709021,4938.305607220077,15862.12337328916,1509.405088845715,1497.5859932491858,-1.398964041803458,-4198.339468257686,4953.904938573665,15620.021353188284,1504.2192484562418,1500.500973046771,-14.450446258251382
-4104.0,4792.0,15600.0,1601.0,1429.0,-5.0,-4061.0130818093435,4905.991297719703,15503.150657771752,1613.8233181306446,1428.722442219788,-0.935233641247927,-4140.481859082534,4953.159223365423,15517.372624861027,1608.9814242795615,1444.5918701971275,-22.340843245846433,-4208.160659074003,4855.9135699002,15714.375315366155,1592.5264748886848,1418.8496535677675,-0.5097180448465615,-4078.560984312092,4703.511220148977,15486.391364041438,1591.334583567073,1435.1028836467394,7.11623371288994,-4020.826462811051,4773.311025515702,15404.899470371141,1603.336761180417,1416.1629143312769,-18.43694046733461,-4220.754962771811,4941.79074902961,15505.704332588273,1588.7254004116073,1433.9886176717641,-8.479131633505226,-4100.834193320911,4850.904482986611,15649.19834799631,1602.72254901167,1428.7220571791797,-4.074900741453587,-4155.924148917215,4823.420990377018,15685.674304700764,1590.7781440204687,1441.0824369989505,-21.362475544126124,-4005.7148560026612,4708.7884013729035,15517.688010309814,1593.8553264363452,1418.987083235033,11.70423476458112,-4062.1741788232994,4919.730997512232,15787.650133722198,1594.7988478722841,1439.4963503003135,-5.1169374358741315,-4108.781577006837,4839.192731973716,15593.230513410213,1601.551061510544,1416.4508812226168,-14.03978548273202
-4144.0,4820.0,15572.0,1668.0,1456.0,-17.0,-4432.515881551988,4770.608081539969,15559.178964130551,1669.47249550606,1450.8199736252536,-8.622685191344921,-4203.588151655519,4749.903463384049,15407.60877970992,1678.3598750721562,1471.6772187749614,-12.72123653299149,-4066.386905919339,4954.040631506664,15660.37096900844,1676.2567405540935,1466.2689342764652,-4.540816897969663,-4135.031285095179,4776.447586828674,15564.767258556834,1667.8184604808514,1456.2002665675159,-8.10560742751833,-3935.55476397832,4759.438045095051,15517.009903323858,1674.7215541554922,1433.4555189349815,-18.492775572667952,-4114.0670541568925,4725.76421877214,15334.190480947425,1663.6405804174278,1457.4718053033023,-22.77422270614878,-4127.499372839151,4716.971484377351,15558.745018296264,1663.353280910916,1467.0797702954899,-16.799860636798964,-4098.407792676317,4771.217439351792,15552.237942734155,1673.9588284636297,1460.679854577744,-20.518438894977564,-4192.8722371204085,4906.488086313609,15527.84246318821,1670.6726527195733,1442.3373294279775,-21.16259383352682,-4168.426779602085,4927.075978335047,15578.63537099693,1661.1791010216073,1441.2092848635052,-5.139025731368912,-4086.901225253616,4865.806019346576,15344.732570783543,1669.637570620906,1454.8302227155625,-23.90761801432243
-4180.0,4764.0,15556.0,1726.0,1405.0,-84.0,-4152.331478262053,4944.707337607537,15646.008074559684,1713.2357504772615,1399.9166792856047,-83.74769581315623,-4142.656113848417,4722.730321955245,15584.236788575676,1731.544779834169,1405.431286939839,-102.68392108034811,-4203.685316088939,4769.631728166925,15621.035725536014,1712.7049886207353,1399.8865305121533,-102.53552514635447,-4127.815452313542,4896.642983189537,15627.314976405898,1720.9593264337843,1395.5299388493831,-82.85516431388523,-4185.170333675215,4718.121944472604,15454.652106840378,1728.0666089545166,1426.4562321936553,-82.05174556626869,-4100.183492764647,4943.6170618946535,15620.131716014232,1738.6741707549954,1408.7420168717742,-71.17937964548582,-4094.892158742067,4728.292159297519,15602.204323438928,1726.8970130963025,1410.4783008653985,-95.58728709466317,-4222.625467946189,4752.134358887476,15530.692503582577,1724.4773387105922,1418.2584819564968,-76.71270968149578,-4185.322369294213,4658.375133431302,15612.124333408387,1732.493139209706,1411.901459981424,-96.08136915337522,-4321.618221510203,4853.9696430997965,15694.457981099386,1726.0332624822104,1396.3455886166564,-105.84652203250097,-4318.4434802666465,4723.1778405192845,15644.963958845776,1735.1151610637783,1400.4211243949676,-93.76829162115284
-4272.0,4964.0,15516.0,1770.0,1277.0,11.0,-4198.807043063977,5140.551140860499,15386.466061286217,1772.9989427151822,1254.0678409433779,31.021795629438195,-4215.768423765647,5045.778205350654,15812.605971175353,1773.6926844018305,1273.4523669721102,31.69987151412086,-4322.276699170026,4978.254159286239,15552.590873525138,1767.4945491738006,1261.5327757636455,6.525621049352861,-4351.3715587704755,4823.4460797566,15483.881478370979,1758.159419089339,1287.2319342491724,16.52307206415681,-4331.823863692679,5177.306923302046,15621.181104371059,1750.1873480666109,1278.6942941071743,9.296819871817606,-4143.224403930647,4917.43419334608,15632.342760634061,1755.676660684777,1275.9182772472855,23.962097025241437,-4261.31051673204,5036.710437236549,15531.151323229127,1758.1075832596355,1280.4549499523735,21.324333273927785,-4305.06406014238,5032.5042989823905,15369.971696236147,1757.2511659336085,1283.55299877146,19.140160133759174,-4382.663387987063,4717.374934605238,15420.756459841972,1774.5464383620563,1294.5273017794655,-3.1647919843814876,-4291.985675675879,5053.702816757696,15632.09602562446,1779.3276522429253,1287.9228790736256,25.23549746413528,-4221.654720982098,4935.033908819805,15451.639833590149,1779.067347144052,1287.2079842602827,1.4480601117917011
-4204.0,5060.0,15212.0,1823.0,1298.0,177.0,-4146.60083603848,5041.090599297097,14907.308330595895,1822.159035228504,1277.2022095791938,184.2441559994,-4311.344140948254,4974.29158818858,15440.236202723372,1835.1248998213687,1285.6703930318497,170.83254090886163,-4184.878670679692,5221.654619645487,15292.001485105184,1819.8036238434881,1294.5908990384996,179.0735188897803,-4141.711211346359,4975.185651716077,15384.654956240673,1831.7257078434227,1297.4155981484687,173.67160783589028,-4164.480794323219,4877.3391280179885,15211.302075428846,1813.8349878153438,1301.962574258916,168.91090620205296,-4315.009353486893,5146.5281730826155,15177.591370364526,1810.3196375918753,1289.381300843516,167.92059245459166,-4321.711243384669,4993.0475113421735,15208.31293830172,1836.2804599801823,1296.94774410164,177.0701880371214,-4311.51425553353,5075.825554088403,15117.403263146192,1825.9907627767911,1297.4348963736368,166.67960437075965,-4190.466201465088,5018.6916701003065,15271.80051010756,1819.8366548055476,1308.4831640664156,159.41275655715765,-4185.679731213379,5276.412969992175,15299.603494737612,1830.0618659028655,1285.6279276400614,179.32991430002738,-4402.887130408147,5109.312352755265,15209.477012021667,1822.4356675700337,1296.2185564823844,157.4366580559326
-4032.0,4880.0,15212.0,1619.0,1430.0,240.0,-4059.045386277506,4924.350781003269,15234.88201619015,1621.5426697088008,1417.2911701484397,249.36294531293854,-3977.3899337718453,4871.945114019445,15185.828402536914,1629.5323635367788,1426.6260417564451,254.03936785465027,-3941.8922906824473,4849.672365875358,15171.583757571188,1627.552473944656,1424.044903418851,237.4960712654259,-4074.4418392878188,4980.330227718219,15318.398089337094,1618.0991266636768,1441.5212267933607,238.81979789225883,-4089.4697080263313,5080.796014690353,15146.099126819607,1603.9712758187793,1428.8506991016136,247.03724633572017,-3870.0057681472967,4896.571570510481,15131.30700220686,1619.5258117358062,1445.5498175668195,246.76165445938238,-4338.905689367513,4757.285666582153,15257.816246671196,1613.5326669223218,1424.5140923058173,254.89721117888374,-4022.9758584445813,4962.135558435652,15182.702079841874,1621.6492091844289,1430.724026278567,238.25305882128217,-3905.804261579625,4821.356759672451,15296.450807049006,1622.8213241666826,1430.3826514688842,233.8252021258958,-4013.573666078245,4903.040148336558,15195.652079343288,1620.0686686931892,1434.8052016494444,246.1457370745617,-4099.49299507626,4914.6173209356875,15295.402507542782,1624.2134096143013,1428.174551018973,240.51974393253076
-4060.0,4848.0,15388.0,1531.0,1601.0,282.0,-3937.661231552927,4967.043625221894,15461.44006032448,1539.946973570478,1611.6773911336359,273.54069560610105,-4034.2351888267717,4752.82574626135,15164.932244784583,1538.4750830717162,1586.4796536746912,282.62403792204213,-3971.403275695254,4816.693270960669,15373.528218549585,1512.1254992764837,1592.3994610417915,281.5460515500935,-4049.1758726699068,4917.560386454716,15364.435373966186,1541.0443619680693,1595.6346301435701,285.1508967800895,-3965.6686903331174,4857.601311976657,15434.30664671686,1531.6416914722747,1581.5395981543638,288.2154705818248,-4110.05125945065,4818.375956284347,15364.678591408112,1538.937340733852,1600.6994082251233,278.84280104386556,-4053.8676141899573,4871.508753144582,15379.33716734527,1534.9602214022575,1611.7719763068278,280.13393380533176,-4003.40464141802,4909.507381812233,15393.843138689426,1548.6911082613178,1597.0935565804743,272.9999068296246,-4065.997029960952,4723.39154455149,15347.230613384141,1525.374776884447,1593.802337800251,298.1551812480139,-3785.263588860508,4849.963789166681,15321.959260654025,1517.775848302794,1598.7566801005196,280.5314365382972,-4025.3374984650573,4596.139986078711,15263.908887157353,1538.4939205403396,1602.4634150951686,272.43334652311023
-4192.0,4728.0,15336.0,1560.0,1624.0,152.0,-4170.0277822605685,4812.790520150968,15309.38759383449,1560.4493657638034,1607.9612990236003,164.82730423120827,-4236.132446972932,4668.137482201276,15353.5251944948,1565.1878341094496,1615.9130002226736,158.74787607733043,-4148.102308595431,4809.941624288763,15393.06283258457,1552.4591066437658,1619.2097156782143,132.2913357054396,-4356.164689616829,4691.003521299053,15502.07017332412,1558.577430606571,1628.1960630123292,164.78298850312308,-4273.1571163379485,4762.819775121752,15316.479767091427,1562.3754498513683,1609.964368705382,157.14486733952523,-4095.9009843874974,4729.025993638095,15324.755044458456,1569.418540409097,1629.9511166371794,148.59312992662697,-4105.592785474622,4760.3496967081355,15350.99408583166,1545.258871708511,1627.5898483470964,148.87837268987693,-4130.655254703019,4832.423617114903,15310.822946477174,1560.2174804046551,1594.6478105034214,162.0482375261773,-4145.2295473301765,4594.301135331755,15291.964101302081,1547.7998164955195,1627.5678064079427,145.02474269083461,-4143.663204007449,4652.787855098639,15434.466547057003,1546.246834980676,1624.572697080151,158.13157100966794,-4095.4344022348223,4809.582159948203,15430.896243933099,1550.22787883592,1613.0315746242509,144.0698880486181
-4364.0,4740.0,15556.0,1588.0,1514.0,148.0,-4460.784412082765,4702.294380850619,15595.167209610021,1587.4635676832227,1513.3095160168791,136.3495928403473,-4358.858835188194,4690.218099271314,15658.163177932725,1593.1571808058254,1498.9741164421578,157.8196740860313,-4530.896575186528,4831.437170185171,15479.555765102747,1595.7193138157395,1511.6300042916453,117.19319234604741,-4463.798462968176,4801.259225840194,15647.22703420127,1585.7569408229879,1533.9609163465964,140.51098192276638,-4449.22843515436,4813.557984527001,15528.470236793608,1590.5112099814594,1520.0851765136629,140.41919536469246,-4355.015847322896,4593.811924452256,15270.141129041762,1577.9443139984753,1516.387298992987,129.59262451708102,-4360.229825711514,4718.854912011575,15604.041169744889,1604.8242293641513,1520.4691921771764,165.79999658887021,-4316.379120757012,4555.858306440022,15422.89386845921,1599.7529930469213,1513.0751169661378,154.4476427098106,-4384.0454027447695,4687.223007159198,15582.517249275905,1583.3366482079407,1505.3432023209305,139.38542676857696,-4311.213914713745,4809.273691917361,15566.868567537102,1604.8553608236627,1502.3097953943811,148.99018697927653,-4399.465864025992,4596.684541529977,15637.872196596503,1580.8176863345288,1512.7585822354324,138.15613941699718
-4412.0,4772.0,15708.0,1682.0,1359.0,111.0,-4364.254008031144,4703.399232033153,15680.70816588516,1687.8597448129487,1359.542494349739,120.64245889609113,-4383.769902335437,4782.610571981612,15836.446819746847,1686.4711890940002,1345.0718864318887,133.9393024705092,-4554.743367426148,5065.463024251577,15552.738613724334,1675.0308371795916,1346.2163709843603,101.22383602123227,-4153.944216305198,4642.951564139739,15727.012827760273,1697.723856081288,1353.8277811434405,119.92668193224131,-4483.950953358752,4897.6735922371145,15699.750144795376,1686.0072057031693,1336.5561999045171,108.33963465002475,-4421.551289039501,4869.721356190618,15569.102834040117,1681.3113306592704,1366.5990925588956,123.66129838617601,-4333.212431140295,4560.431221350659,15704.870263246838,1684.585965231581,1361.627478402254,121.19314539607699,-4497.721119523273,4864.998297133442,15971.495274474968,1681.0814275519172,1370.827631754645,132.93353452434593,-4404.3944025067985,4660.54779448488,15645.99751112066,1685.0607404724437,1353.728274570317,99.33307864499729,-4333.6508900094,4863.693226777169,15688.373845570932,1667.9393970303345,1366.5936637965515,101.59111772922026,-4352.256987281202,4748.007094496463,15717.972260431752,1690.7651430166127,1364.5636497835146,116.96544230434581
-4352.0,4760.0,15620.0,1776.0,1261.0,-13.0,-4349.9817808177395,4622.625633471972,15686.98915064737,1762.1972121070621,1267.0145163796165,-21.243036084673378,-4267.858128875411,4644.107478779491,15492.784599268856,1793.6081437264156,1264.9653030669315,-32.86437375179404,-4517.226773917084,4717.09005216751,15733.233427124122,1772.2603921849823,1259.2784051345052,-5.769429003432874,-4511.783178104093,4721.55802425492,15467.164407533655,1786.437925568826,1257.4968043476165,-13.460014267044672,-4298.598511438629,4806.064053511236,15666.089333180598,1797.8130667520654,1259.447408694467,-12.82203983205466,-4265.578982372741,4604.011772326281,15712.975856166968,1764.2045514381857,1256.172426767182,-3.797743283954567,-4455.771297074194,4783.204102360868,15391.091390258784,1781.812622377816,1265.4786860245458,-0.6854113689986328,-4315.452512096961,4841.821296481083,15556.915343333538,1769.2028375336995,1263.8095482241104,-12.195979574840592,-4455.529345317284,4671.527878252738,15462.742611306816,1782.4648006004861,1259.570178050763,-2.214288529895418,-4404.77196437033,4940.1963546581,15665.20999128333,1759.8772684465669,1271.8428445643306,-17.65876069855932,-4302.925695638745,4828.889469653862,15765.480077393195,1774.3797239972896,1269.4901660559528,-14.12753539316136
-4416.0,4896.0,15556.0,1787.0,1019.0,58.0,-4251.386793130428,4796.029985412246,15641.81641999562,1798.2207194255643,1004.4585812933055,66.77896853436741,-4345.06090486259,4954.737122381899,15438.930018616576,1789.065347478296,1022.2939691913805,49.106970508577945,-4304.714398315925,5113.324032377516,15608.5422762254,1782.8432661493232,1030.4851334358007,51.11516169120728,-4670.928440124766,4793.504103488055,15660.84610360478,1766.5999453869717,1027.3009793382616,52.094202630222675,-4456.298974141547,4803.213914441285,15522.275078857123,1796.461859764571,1007.879569265878,66.83875012318948,-4418.940781526955,4872.300598808952,15627.830177203445,1766.879446387403,1023.4003317711696,60.2811854703792,-4337.959679090598,4926.896387079621,15515.107684634888,1800.5237939905935,1050.6030337596749,62.375678742936785,-4391.121603046482,4933.904448669498,15633.363758084663,1778.7400990992514,1021.3160313437953,50.37807884632079,-4492.371757111482,4798.5425882046775,15718.509103632567,1784.9692610440222,1021.2348477946194,71.76018322883904,-4519.26088510197,4890.722441799714,15596.747770545486,1799.9509168270336,1015.614260032737,65.10455679216042,-4513.72943928375,4928.167670515437,15390.211698202513,1792.5644151555723,1017.4612209234842,63.890877941785504
-4380.0,4908.0,15848.0,1517.0,698.0,21.0,-4435.720843198336,5013.5065568360915,15931.23452398791,1527.6985474695828,704.1040558618746,25.337666344086728,-4432.485392942921,4987.042400599181,15914.552216981052,1517.6406626597352,711.7159408840694,10.659273974785204,-4463.825694029966,4989.614899070586,15877.800293560425,1511.4717708504625,687.6220004419905,23.10157977490882,-4351.037031521307,4818.843149821601,15821.942949966933,1507.2419701414233,686.3658462081588,11.99437671886992,-4385.2384973946955,4906.903115244305,15828.647617351968,1507.7352250624688,708.93364820964,10.218129569093756,-4231.586863014846,4747.840347817243,15887.444279626223,1520.5397234782802,694.479269084278,24.760933553736226,-4541.248009301388,4895.778149898711,15827.496336458975,1519.4234706316306,708.1278579337973,5.638263081378902,-4180.621364069285,4995.71867894062,15726.982150179174,1516.0542708934843,691.0421394438432,27.9002595546577,-4554.176518040074,5071.953117340429,15873.58509622707,1524.389713871974,689.087261948609,26.19351820825802,-4246.826635014377,4817.684333451584,15952.9722528859,1515.8536868263013,680.4930445076595,5.471349857391139,-4364.728782108522,5049.841200571759,15802.768658594165,1534.3492067601696,693.8710335630293,26.49608467316431
-4240.0,4668.0,15532.0,1324.0,1011.0,-45.0,-4337.872991177183,4734.363388358151,15489.740955232257,1333.5723675436832,993.4227772865248,-50.547106394613834,-4274.8276639631285,4583.948241377377,15597.247568822033,1323.2421217187257,993.803508420553,-51.018157426369434,-4244.638246879464,4850.08234033195,15526.7573594182,1324.3803516644796,1004.5232955691432,-38.72719767255471,-4181.931605658054,4840.238801524296,15484.481530964875,1324.2342668397075,992.3378283870937,-58.81396270517186,-4159.578570433091,4631.999168608678,15501.566322726927,1335.094212458509,1002.1212825635066,-64.99188445725544,-4426.960868280636,4564.325451590536,15570.191451991135,1322.4895153169332,1015.1821503892858,-49.46511483079543,-4059.2537606023566,4847.134415580559,15537.642836569583,1319.759091210951,1023.6751975296504,-52.90411484020509,-4081.2058323270176,4769.685687254396,15631.267265857323,1330.2141936584344,1005.8243373600079,-38.13041205007906,-3968.5788399605226,4620.111379312924,15500.763233264268,1342.7608002616225,1006.9536764864482,-46.85330451365451,-4080.0315135733263,4375.079636110446,15688.129292312558,1331.5460133808836,1003.0604270441281,-40.896804757450816,-4255.019812737029,4523.497366385187,15569.122519233479,1332.9047673364564,1024.9122597343335,-44.501551864254466
-4180.0,4456.0,15488.0,1674.0,1364.0,64.0,-4070.6720709805923,4251.617282100849,15629.445297404918,1662.4170259535333,1349.0774675786772,59.0838822755745,-4033.272833752151,4350.572262585611,15689.327804096669,1694.3193801475986,1356.7764716006131,49.18240642798522,-4173.023601990673,4374.588673052207,15496.329393404785,1671.2637729879957,1359.655780094765,69.91594097185708,-4098.540873307708,4551.448070398987,15516.643462590604,1673.742049406675,1372.7027179803886,51.71621210228246,-4222.584440437211,4481.325174620831,15504.637805975064,1670.9545514227984,1367.1178287437128,71.62402575119748,-4062.2383847183255,4512.213896682499,15486.170416059771,1687.2877086056687,1356.3428143515682,68.2108639080123,-4157.675593194833,4554.965992034558,15333.552878150173,1690.7049834463867,1342.5087108541063,75.0981704573864,-4027.295758545847,4298.4086560808755,15590.987958883958,1691.1183507807054,1355.4007276515702,55.153206480619374,-4099.800074964776,4414.048765459846,15528.817729102157,1671.6851447921335,1375.4456605620942,84.66598315227745,-4258.156731605103,4403.766484950718,15531.875685137193,1672.2560627439657,1362.285619354807,78.08179324218166,-4178.404496564272,4464.423561006232,15438.246712073988,1694.4501167764276,1382.4007318253227,50.53658838109894
-4192.0,4692.0,15712.0,1672.0,1468.0,79.0,-4270.215926273649,4705.169183891209,15579.577337773047,1679.1043078526943,1476.218199076045,81.68245107627563,-4141.544201333312,4632.8586331057395,15684.230554697873,1660.9642757649958,1447.1525514804343,78.77468970216822,-4237.775103258414,4684.5024385216975,15833.323882357645,1672.4121739418035,1471.7940712115808,75.74484977583943,-4141.066320161955,4724.350590717272,15649.914641345138,1669.758257242209,1478.5529251337869,79.51513287174869,-4157.881079010047,4565.492155605652,15661.572476998042,1677.8154534996822,1461.8208872907435,79.63047122532076,-4345.867084835169,4687.954209416548,15890.099262218906,1671.4989738138336,1451.1408681613977,69.29061844572205,-4417.931510392768,4741.0742765931145,15654.192712622676,1678.973645149967,1473.618190444084,71.76218885924715,-4108.520131731383,4643.765216590724,15581.97958034809,1663.9230316786675,1461.323113164896,73.53855665510633,-4054.17213767166,4800.691817627701,15662.876798828218,1679.923295463333,1463.5272878229157,76.7740278129865,-4204.508864729439,4643.06506762272,15505.7647501242,1652.0267955266154,1473.8852680348111,84.63013473766178,-4056.848295595481,4550.002125200309,15639.046686111722,1651.497647863731,1458.2370006740505,82.78109613283699
-4332.0,4788.0,15904.0,1566.0,1500.0,55.0,-4299.650850646827,4842.884844027208,15869.799739469474,1560.5920917174212,1504.9695439204002,54.7838534116351,-4353.501064780946,4919.621931868114,15808.64995866616,1569.5543789208332,1498.8491269174065,53.06499312390713,-4391.332075078955,4739.8989354447895,15732.781132860817,1553.3288285847461,1495.6322678779043,48.638339394168824,-4213.559726862668,4786.5237750734805,15959.67373924278,1569.7619339736118,1494.0575107227137,47.2418422818539,-4302.557689925027,4839.327600913378,15887.229321661183,1568.9704082097512,1492.5795828831604,68.55797380834804,-4373.473071179019,4750.663117859783,15734.033332773966,1575.0251099753923,1498.1692379194103,66.03878783569782,-4349.036408317081,4726.980940585298,15828.537283167201,1580.311920971753,1497.8412668335675,46.815458784213234,-4464.57280365442,4753.275226879879,15958.32952478121,1577.7783951458132,1514.1767508362143,27.205169484858796,-4433.972069714027,4697.8949606724755,15912.463828152775,1569.6951776175827,1500.9836028810619,43.73204239324816,-4301.553214330738,4776.346703231876,15918.14047327985,1573.0991513447384,1505.0744598056754,30.321861098866968,-4156.730530047674,4718.106080954962,15884.832431952342,1554.5261241294602,1480.5406927806616,48.43263510505948
-4288.0,4792.0,15744.0,1572.0,1430.0,41.0,-4233.564767560556,4756.035367930327,15630.548875112596,1568.234838176975,1441.464224595847,48.177881838425236,-4373.849356517356,4599.9168110018845,15803.471805687954,1566.308187997808,1419.4493556825194,35.380101602293266,-4381.5103364608685,4952.551464596333,15754.836729601428,1573.49408398087,1427.9087616669256,23.455681163832814,-4442.657408130437,4698.525837853579,15653.883747941198,1583.005005235877,1436.9996140139242,43.43382673268907,-4394.809255116658,4891.113740230058,15659.930937209981,1575.9255418345022,1428.9060743914379,33.03977640366028,-4526.662937711151,4896.375573983094,15893.000295813776,1575.841652316678,1425.7627659266316,54.92543494618682,-4196.079871737564,4825.023464392697,15697.062785595854,1580.3788108832239,1418.8746087999948,23.477499051453808,-4365.0989403181375,4872.490816256503,15794.552350043105,1570.1877513350212,1424.281810052321,37.42780709217787,-4249.992449585311,4872.4396340291505,15785.496753171785,1566.1621308924616,1430.8571573664158,61.10552617377415,-4226.479940704746,4655.153288912348,15818.011921927091,1564.9472699649587,1433.7388589173509,38.668315145051395,-4452.205941425006,4869.871560542138,15647.3827484069,1576.8767921176634,1440.3264089343913,37.186497673854205
-4328.0,4928.0,15732.0,1773.0,1305.0,212.0,-4348.85402479297,5069.100932302483,15824.264658257847,1757.6219265265852,1306.4350115771626,231.52888573897513,-4237.121448557999,4951.677779433973,15714.657416595655,1769.9687171403011,1294.9528964824992,199.63703878421273,-4263.998321047643,4847.387587372448,15800.179079321335,1779.0260395827816,1310.154713550438,192.33903356568297,-4123.933174395594,4636.2059220528445,15621.71206807493,1786.776100461105,1303.618873521567,214.19876703260047,-4190.083805664019,4830.320159611678,15721.175942020045,1775.2061904611558,1280.9537803671287,209.63055382488224,-4318.726323934382,4957.298886159494,15611.801671084211,1785.8700373838599,1294.506265650791,206.2723911969122,-4194.144829040344,5108.606474984322,15890.756138245697,1778.4954173422032,1300.3307822984755,214.83054569370134,-4464.424891589603,4973.374059584599,15844.972777715522,1762.719650281793,1300.5474244621382,201.92639257799476,-4247.9868851028,4910.539903177517,15841.764420595999,1772.724960410116,1322.8236602040533,236.4191071280778,-4162.295332645664,4922.501002333405,15740.679507148447,1764.7847387861345,1306.7690709242443,219.18096604509822,-4239.889688813743,4993.800318054376,15751.206207095995,1766.5553866325977,1299.6278709606217,216.03218846783534
-4260.0,4888.0,15816.0,1712.0,1099.0,177.0,-4153.681598152563,4847.297758215999,15798.488946484127,1704.548384910638,1081.3970408291555,174.2962156826737,-4256.579600371625,4966.574438252762,15800.988340921978,1722.6648845509897,1104.8964980685496,179.86595159397146,-4171.530798436855,4786.895811577244,15847.472405318424,1709.4048427772902,1108.9730231147246,188.48755280663698,-4238.09010285751,4936.230655011255,15875.057857786707,1716.167097218676,1097.3271628082189,172.40140556789038,-4158.197130528195,4802.605630972146,15824.429088006425,1708.067263718955,1091.235182677568,168.1499237290218,-4141.828081893941,4916.12281297796,15887.79811943491,1705.6287771833397,1109.619409627518,190.11999383919786,-4247.3283149991175,4943.600722787114,15542.471674516299,1695.3364614551467,1111.6396430789284,185.97911544595775,-4210.971525897232,4974.116474462941,15861.069067760993,1721.6987113254581,1103.827002518393,187.85873850418326,-4302.133728385547,4946.5450672384495,15630.582550050542,1704.1722368570802,1096.5087062700766,177.82413588090742,-4429.088746721789,4900.531913275478,15672.941964318545,1702.8139898289178,1089.3831584802012,178.77279891169985,-4218.326455243964,4894.030486204927,15581.363594988426,1720.936374022871,1107.8019170004964,178.73375172503657
-3968.0,5120.0,15564.0,1839.0,1313.0,348.0,-3941.3991871409867,4997.005951660951,15594.28796075553,1832.8130387494268,1313.3285630112382,348.46511058393537,-3891.785241697758,5010.245982911877,15548.479858880139,1839.8895673409838,1321.5396593808366,342.0898487863711,-3831.5438075879456,5105.130884763805,15814.816666189909,1822.3799446934086,1301.1645891540068,316.08844128959424,-4041.897125638519,5090.111579408193,15616.763130089112,1817.5822737439746,1307.4654998606788,338.1074872173471,-3971.7039956805893,5312.922117973835,15627.314593033556,1834.2230972504353,1309.9019050944182,353.54930126173696,-4066.4654192184507,5047.358795557993,15610.530859659415,1823.9804909903794,1318.3009558502688,336.82117256564896,-3991.4735013251,5108.051207614772,15728.221126596563,1836.7221588325608,1312.8826433558886,359.08780426425494,-3912.125927112456,4973.922402713247,15504.087868420087,1819.8561395003546,1317.3857220487005,323.3810703674935,-3956.8592051274577,5101.84331896587,15438.449831300835,1844.438224330857,1324.6320641697614,325.9841099104053,-3915.325979726024,5192.48756374831,15450.413372990484,1836.1805998141724,1321.8492119108148,349.71804592060687,-3855.208309374217,5176.104206488998,15462.691384797516,1855.905422874713,1305.544759488331,353.1987836873094
-4296.0,5132.0,15752.0,1733.0,1348.0,288.0,-4128.056914506866,5170.436868880587,15930.959470648066,1725.231542413222,1366.523584690729,282.502041014508,-4370.482915694196,5108.610176775188,15633.265067535001,1750.8973245057164,1332.0320048947249,264.30928610765227,-4439.749484794067,5090.281892116505,15692.159287239921,1742.9758170615248,1342.384501806464,275.7715313388297,-4349.234281184047,5023.38548676282,15669.714965155554,1738.7256606634876,1359.8511912801866,277.11542970767994,-4455.222024669556,5211.668919771922,15901.822805195585,1719.750621116084,1346.7419351230737,286.41927776263316,-4334.984611706908,5138.415620592429,15790.364368664808,1733.40556015355,1340.5064959272815,283.8548311569218,-4477.024681152841,5093.731688804088,15636.217614723448,1754.0342417173035,1349.7998288163408,311.502721266179,-4266.049249794091,4984.834679411006,15718.489164992554,1752.011260072778,1350.4060096683281,276.83776742706925,-4181.627327866889,5105.452345298087,15853.71938441183,1739.7265539077764,1354.8210942576068,300.12376688245024,-4363.251441863035,5125.013906273309,15708.800913780156,1736.0649701110435,1361.0185286792823,282.64190614203807,-4304.688937854369,5101.686743119534,15638.644330934072,1735.1034805592312,1337.0557308760392,281.7365608765457
-4352.0,4908.0,15544.0,1501.0,1273.0,266.0,-4247.663403764823,4949.405747772228,15637.003398738074,1512.070200033849,1285.2718300633212,272.04149457613005,-4602.884711846574,4795.231803812954,15530.491154558726,1509.67727548981,1280.8970788817687,257.7571398447568,-4310.7127249426785,4829.342861635394,15592.119377195184,1504.7410598260176,1255.5552699943269,258.318909559086,-4328.222905148118,4769.377331065658,15615.202481545128,1498.7865084157638,1270.300584602828,247.29507908938834,-4417.571945362132,4928.068147025846,15525.410560939705,1508.9222343230604,1252.2226711377682,271.3369780038408,-4408.998349661137,4891.561342796868,15459.01050278619,1507.0396812026436,1270.6713923067543,260.96518955692994,-4374.825906291151,4815.164762895185,15606.290475949569,1502.819912854993,1270.5727170903533,264.7456006288031,-4289.483432352471,4912.891446588288,15414.315677227401,1512.0874093747025,1268.3983782053501,269.96106738425067,-4326.779835407578,5034.994997154808,15429.183733682017,1501.575084616755,1283.556103202487,263.3921416247572,-4489.023922843752,4994.139908187672,15551.916879088674,1488.7969136406593,1266.1389150547031,272.1372900722767,-4246.826049793605,4968.846582205839,15470.270230369117,1493.3597167042308,1270.2019159496456,280.05723281504436
-4216.0,4880.0,15484.0,1368.0,1220.0,387.0,-4230.723295586536,4783.478055296246,15471.600375619155,1365.1469376542404,1223.6493291452102,388.32060945505697,-4192.4104893639815,4852.043768843842,15456.451589569879,1351.315266117484,1221.6711027774936,387.331234951038,-4163.942154294578,4881.375073601423,15511.981101724547,1371.3872520494951,1214.7380025996563,381.8082393353134,-4370.214964774894,4920.692557980354,15481.126489198468,1355.7689092278817,1202.5490076485978,384.73060286034394,-4271.466139469879,4795.393579979464,15388.72786419979,1396.8317996547835,1226.4546548892577,385.54471475857923,-4220.803098452995,4887.471127945966,15429.745974718677,1355.9575603788473,1221.882855925101,385.39571304823045,-4435.3154317534,4826.403520570313,15441.50051762503,1354.0735435937288,1212.0895372884709,386.3281922612156,-4355.196467755593,4985.161556086137,15521.923929723873,1354.5165421981976,1206.5724089412174,395.1341013152735,-4156.103377992626,4986.987000725694,15592.202711901302,1364.4002795339584,1209.4828642948892,376.2352470457662,-4339.494529726173,4630.818388826327,15592.067158866097,1366.4881652463043,1210.7713309865437,403.18791084218054,-4360.577441071573,4916.021087023999,15429.730318641175,1374.3796410035316,1231.0617030784063,393.88520436950796
-4176.0,4560.0,15448.0,1710.0,1316.0,421.0,-4208.801245199906,4517.725947690143,15540.81473341298,1699.1448797890491,1295.4853132616622,426.5988394756308,-4130.130800132257,4367.215516845036,15642.29358183424,1707.6321103168234,1322.6936518397797,431.78967000456174,-4160.057193162278,4416.681768428486,15446.63891366505,1714.844820323571,1300.284708847502,409.69991918682047,-4186.223602189385,4452.866325226357,15506.678535286224,1722.9236132339965,1320.8841160894578,424.2230551773775,-4050.536338871219,4557.355541322508,15423.279311732853,1731.7134612009586,1330.7448891520037,431.89555561078373,-4149.808008073794,4519.823650787116,15582.913153808495,1705.1868639193333,1323.2470565883957,403.7691286706024,-4144.135161754595,4691.686847225588,15526.95319706355,1737.6462111296728,1321.2949736989278,407.65293316111547,-4256.875781110393,4618.0549034890455,15484.567827595221,1720.2339028110925,1305.2434728262087,399.7482966901768,-3997.7978845755274,4676.991373613928,15422.22076697481,1714.6970190378245,1288.228884639869,426.1497827311028,-4217.530413796912,4396.353354711513,15461.447258181468,1704.4622295338272,1323.9194925971444,405.0074594050333,-4098.051592591917,4583.913718838661,15319.101165606933,1704.380384122464,1329.074946510406,407.91996895994424
-4016.0,4548.0,15444.0,1880.0,1298.0,549.0,-4003.8019787680423,4443.2338142470935,15374.855616027167,1876.5206038341873,1290.461574201006,547.7470870944869,-4032.768494215416,4723.372391611007,15387.582587763622,1878.1722806686942,1319.0480739889638,550.4367503452231,-3959.8253897480454,4539.299343318265,15439.031036876295,1885.6874504837615,1317.4104811128518,548.769579803032,-4114.06832991519,4631.012289486902,15325.607821641595,1888.6903541494921,1305.853025368485,546.948378489293,-4050.7663798536205,4372.799914476414,15557.160760701372,1864.7471887442787,1296.8833850061162,562.4105114401146,-4068.1292839802386,4657.229623198407,15484.000773881933,1890.6286244683247,1302.0180144990939,547.8085257090918,-3859.016562882139,4413.889948090866,15465.869447197736,1901.5195984407126,1298.3561845688707,534.5066925956482,-3929.0925479952894,4503.589963908956,15440.582117364269,1891.955353530847,1292.581179038467,547.864321492517,-4050.239915535903,4625.766909614204,15527.192056017486,1878.7506355895157,1299.7044182935563,554.9192322369598,-4113.430817824735,4701.741494910945,15463.651642881248,1877.6970849704476,1296.1030120360197,538.2252548508473,-4128.889212633531,4588.482274956496,15374.852279922996,1900.9607677505396,1303.4141648816676,541.5557334405358
-4040.0,4760.0,15416.0,1668.0,1386.0,362.0,-4043.8416590272745,4663.449335618941,15283.263607405155,1680.623952156447,1396.685917345712,378.88106896698133,-3855.853307126359,4785.5395179988955,15544.66109899071,1677.5283248936046,1384.2885545070833,373.02934353734685,-3844.5467795401805,4863.813301567288,15485.205120543127,1670.9764290447033,1401.8275030858188,356.5513584667412,-3965.719762099072,4743.439795761614,15650.563521395236,1682.7312428514433,1383.3340012035162,389.5070387327711,-4129.06028596446,4822.304633343479,15419.446075130521,1660.895481573957,1374.0283672676194,366.00720904428357,-4027.561890760096,4682.515787941127,15453.009466504298,1679.2560038923048,1382.9740157758395,371.7398931487948,-4065.856646807611,4805.289731412334,15607.384780553826,1671.5505541310183,1383.0929066329124,380.0997686994956,-4132.695072505598,4664.913740240991,15309.502626193684,1664.103410664732,1377.3287477045408,338.6434503926949,-4095.3028915616173,4702.309076111055,15544.078279374693,1670.0866658864031,1372.256850009603,359.8428576259065,-4178.920543004744,4681.797317736637,15350.964509389056,1659.6357023298863,1381.6929956909323,363.06971249564697,-4153.362236476969,4766.3791854673445,15394.223033245336,1671.1175279351455,1383.042366552832,353.048970189088
-4164.0,4660.0,15484.0,1528.0,1549.0,215.0,-4189.992978881458,4608.398291171637,15531.155109133353,1533.6111812599904,1562.884603781451,220.4975519909793,-4024.6620743317376,4807.811483798943,15463.44465334378,1531.9669502479646,1561.5564754312318,224.80738025703826,-4083.778390072728,4677.77712355588,15461.47058477536,1524.8265998810127,1531.475477314829,204.49007765856072,-4073.123649365703,4644.593688428076,15380.502885201855,1541.0860386262977,1540.457930973858,236.73582448696138,-4220.672222890717,4742.232039306111,15565.912327230239,1524.313063939107,1533.1894181866426,193.71059112759258,-4188.614119814966,4635.028747576468,15416.99799292957,1547.4357046299035,1536.5139005506517,211.53042888409573,-4120.5862507707,4779.5207120204095,15478.499465623236,1516.0565544815788,1556.5523498087064,221.6465197834462,-4229.189058216758,4740.434803458426,15599.045305313339,1520.8528892113418,1560.4180872137954,192.68539416313206,-4131.119096037816,4653.7280073098045,15338.194254711274,1530.8713151514046,1549.2458534304985,215.7269927152749,-4106.378287596628,4628.31423593165,15374.932894979067,1539.144533066151,1553.1977433714173,215.9323332238652,-4046.70466148257,4448.663888396191,15515.399468952097,1531.6789301203576,1555.8926896507376,207.28486494942945
-4196.0,4720.0,15640.0,1568.0,1613.0,270.0,-4098.864256954567,4652.004343074533,15427.522750588345,1568.0233990188824,1600.2363642213754,260.3725158237777,-4252.401426084544,4640.248559137915,15517.949767630796,1571.6090821269643,1610.662082150832,278.14226508013957,-4192.579344991545,4657.029139615547,15709.656361839303,1556.0667969670967,1619.9525446409355,257.3221833078419,-4200.182818965372,4832.407565827509,15767.854490594207,1565.3876485965657,1617.0294844161087,257.65849388807453,-4135.149967935093,4737.438112974956,15805.408795344203,1569.4035563105028,1610.2244794260932,268.06901079780243,-4026.0880213441587,4510.4022690511365,15650.776300253652,1583.4987259005013,1613.096837190858,265.39501198362416,-4286.947804005159,4628.945654172778,15623.552863442801,1557.5058335796302,1615.3384497795669,258.3130923230368,-4116.987280727177,4723.50916228313,15670.364310110384,1562.9412572550586,1610.6713765959141,258.64415978129756,-4138.051215339994,4637.932323785052,15736.519770315874,1557.324159521833,1617.2950537058762,270.44021105903994,-4325.759981067227,4671.8974765291,15663.864107936684,1565.9482368110118,1612.9091554674496,272.92084950226416,-4201.720158876195,4731.6225745183865,15446.657920888338,1586.8293805601331,1612.716147212702,269.8096283782652
-4332.0,4720.0,15744.0,1718.0,1530.0,392.0,-4328.976358769259,4756.0997289520565,15898.822649774436,1714.0543515772242,1542.6779992854674,393.9369423608082,-4172.959136488774,4644.600162497582,15604.93272367841,1720.0716374191732,1537.228260996059,393.9792682395783,-4280.85206260413,4727.176024797467,15635.447651343513,1717.4847246030943,1539.9836741996417,417.91175288143876,-4283.8518837079055,4939.740978026646,15500.408389623042,1721.4972438677955,1541.9039373111596,384.7580556812687,-4344.3283266374965,4689.0887539298155,15638.84935697086,1708.1620570227763,1536.960063838232,391.48204962747263,-4458.327844948745,4713.575327778571,15710.116527936709,1716.495594811615,1535.9894384759466,388.4487626933925,-4473.682015564441,4537.165540895044,15682.282654193148,1710.9073402449085,1529.5745583909193,405.8608161715848,-4332.6744573221695,4805.236747636221,15630.678687075904,1703.0748933267848,1524.919454218124,401.6829794532833,-4367.833235382717,4625.758701527622,15803.724020257112,1731.8305642370979,1538.0448796220314,400.61094192856496,-4432.393904180243,4641.006689979302,15729.262584651242,1717.3135399050827,1514.8966329236187,381.9954811634517,-4329.03093099054,4787.921796809702,15566.020265333627,1716.6844236605566,1516.8922100745,383.1031319917368
-4328.0,4808.0,15568.0,1815.0,1422.0,503.0,-4401.631830176628,4751.711793060367,15563.510434695814,1830.5085944932796,1434.8669383397878,495.69101407215413,-4505.271034881494,4827.219843826109,15573.043366110622,1816.0756862691192,1415.2508143026857,508.70480331253754,-4366.879437606328,4684.774063858386,15462.821049493954,1833.0631595695004,1429.6043748396999,506.5090054753858,-4477.8326033979865,4982.169493474976,15655.950849884823,1796.2415515780217,1424.3432468001183,495.45440357841835,-4313.890098082462,4775.650004730148,15614.111075951989,1824.1473408109623,1424.0454730883864,512.9276235786797,-4280.141350788413,4841.769447179478,15561.819395085015,1824.6236265649934,1412.860440720158,491.5765269354072,-4511.045893336518,4927.9121341520595,15551.884952269531,1803.1216514747928,1432.9336685241465,504.14744048601307,-4467.054551688004,4890.563420184231,15383.495016666073,1829.5783345193156,1408.5877073588736,500.97651633209597,-4510.476129668111,4905.144620218503,15427.393231485888,1802.1844878664947,1413.1237287564174,511.69073248516236,-4278.8084040737085,4905.823920214297,15611.36395469944,1819.1895738039375,1412.8400352820518,505.0089890913833,-4184.743416015004,4675.423314036893,15681.57058592627,1818.5290038035837,1426.2828434595533,496.441006605008
-4060.0,4692.0,15644.0,1761.0,1437.0,489.0,-4047.246707115576,4723.4551672771695,15594.137212515565,1768.5845587778513,1428.5268985645514,494.7286102618651,-4275.129826229171,4674.0276497866,15604.888410131214,1769.7557913048918,1436.7584951382858,502.7783607126616,-4022.7983069336346,4752.488886620253,15460.791503855053,1770.3055379643397,1440.1335071840347,487.95004093098606,-3952.613280211987,4704.987290565942,15742.760952565452,1774.1222234534268,1434.070258443319,480.36250427211746,-4009.775323550448,4690.273278551808,15767.661548311047,1763.2092459408116,1445.6315438697432,494.03430210516836,-4045.999099517061,4796.583396764825,15774.373300966796,1748.3102922475564,1428.3906037838433,475.13818007435367,-4025.970682012468,4539.4075101310345,15647.641466291829,1760.901948160619,1424.542907733992,479.3921383095785,-4124.715137612382,4563.899500501256,15599.167253654414,1759.8143122482918,1431.8990334717023,486.95461621495093,-4231.2338307273885,4717.056807372512,15644.259039487955,1736.5108959765716,1440.4164341977885,481.1559333163985,-4136.846275059325,4702.699929223973,15659.42786903202,1749.41973752931,1426.3615852209775,484.1241512957593,-4264.316370509966,4552.723842457325,15642.589259426137,1768.379872392459,1421.6604423921283,499.03964009804423
-4056.0,4564.0,15572.0,1719.0,1471.0,495.0,-4184.561479298921,4365.855126783225,15589.954544461263,1707.2296204867516,1475.515167286519,493.5840965724691,-3985.837386379252,4452.006723180144,15581.979111847471,1719.220002186878,1474.7832213763763,492.9163868402531,-4192.823021424354,4620.0211415921485,15720.068217376918,1735.9558473463774,1453.5801227095667,497.3438719682536,-4237.171661071386,4679.304731417265,15441.815436558974,1729.9343995898546,1446.9452111191554,478.3687894340385,-3980.7776569113494,4492.033330965619,15565.733615239982,1727.7438713257382,1484.4083861777792,496.71701575172887,-4111.2718813465135,4594.355344759586,15465.791896741286,1721.2062697377637,1469.768312914099,497.48705065246185,-4270.431562225697,4512.454889545365,15655.864518204211,1715.0945172282188,1469.899756467922,502.64142601077515,-4009.713786229539,4618.516013740602,15489.08152567901,1703.0820452677817,1453.4022067646722,492.63913868941034,-4023.750084132039,4548.347432890236,15714.85630623616,1722.8461140403558,1494.4631750747387,483.25698345388395,-4082.6492988367368,4649.128875350652,15576.549496006906,1707.4221694065043,1470.2613797168972,496.08838838006324,-4069.875491967965,4582.541832708093,15506.090075716278,1712.8863238902509,1478.8966756559514,514.759158333034
-4240.0,4488.0,15552.0,1698.0,1510.0,340.0,-4253.104730378993,4607.939849202251,15492.620512609654,1689.3918457460604,1509.9464983041776,341.3913860800657,-4282.332049233077,4347.85732558422,15568.80416012461,1698.555122262588,1506.3011307048525,356.2332938386099,-4195.0633691517405,4501.153561851849,15538.725478485128,1694.658465732294,1506.7196350897052,336.22828330866645,-4120.82539837985,4463.71179193693,15539.663878883632,1708.4115104524158,1503.5305832264494,334.47956306088247,-4325.105426018371,4411.118837444879,15635.825151891137,1693.8832904604258,1529.5649800338667,375.089209081137,-4249.920910517044,4646.281142040403,15649.085178560706,1687.8398390251139,1502.5547051872306,325.4728759811972,-4306.187378935694,4577.530959247769,15568.286391104582,1707.7932051999157,1506.1166688432559,344.0391726706727,-4328.486353726022,4514.644257851258,15596.875118398679,1697.3648576885314,1508.2184996317028,342.50848007779206,-4230.464072241061,4633.45579582389,15651.507446853497,1683.6112451974411,1525.7998621820027,342.77462664143843,-4161.614502231475,4584.123998804983,15605.03079135223,1700.8888349434083,1512.0590057142738,340.6769514213216,-4423.18055712243,4515.28400577289,15535.339361114527,1714.978391309604,1495.509796431662,347.6956625389441
-4272.0,4552.0,15676.0,1737.0,1503.0,231.0,-4175.564252699723,4521.250809408829,15575.9695643715,1718.156711828679,1502.2040604633714,219.03823330624738,-4353.7578052742065,4507.2059636353615,15760.961959987053,1742.4966984648781,1499.4108005675414,231.8539292308308,-4314.694232639585,4719.179639468314,15518.471568432495,1727.5789041316898,1500.7538279647267,219.36540526559767,-4140.4480712030845,4538.534078347771,15826.659614095697,1755.182914326665,1507.124938576428,246.29152463656203,-4278.071847609563,4509.191601414674,15754.281728135265,1734.5604135864344,1518.1685889101147,221.03184745135005,-4438.26402819949,4515.638788352052,15671.51131368119,1741.817526963513,1523.9810892139153,234.8106764172088,-4449.170591200454,4521.450865369201,15798.01302137959,1719.2300006049268,1479.988916419894,229.78573497370394,-4320.133205497383,4670.723218553118,15686.103540335467,1718.7666394654516,1488.9237458042462,240.54840345127798,-4295.954274858311,4454.87383001068,15469.536768467384,1725.3877258640832,1502.5940211766651,236.43676368739952,-4284.699126125954,4621.798778647331,15702.428002356834,1746.2113441262438,1485.739916963806,224.33290110250624,-4472.010417456241,4695.492634987506,15586.2206452398,1731.0875365258053,1486.1026629621783,223.18451151270307
-4424.0,4604.0,15664.0,1792.0,1289.0,311.0,-4563.003360068863,4578.219027913843,15915.844865601983,1788.3721948560294,1292.3772587639191,314.1457046310645,-4369.990924189826,4562.466299687306,15713.987346321914,1798.6987233035147,1266.5334694922199,324.4094581216676,-4569.175107732928,4617.806361337272,15684.099258163846,1786.66959414245,1286.0617076648323,335.9045067495821,-4369.932142143076,4457.731105456627,15716.579639618087,1803.8494005361633,1301.10136020627,307.0935447823601,-4502.959229820478,4567.61061015013,15750.532134368219,1789.8342619842304,1281.6575022181278,308.9305976152036,-4447.3853019269145,4635.517549309534,15669.738468707374,1781.9091283755697,1297.4972804389342,312.67450107443534,-4490.04616533959,4711.794402783487,15784.291322363842,1784.6569739778843,1278.641123056632,291.7300116761342,-4424.483193245914,4539.712940030122,15691.4899433371,1788.8017136056835,1296.9515423648515,309.3282262883766,-4271.662138586157,4473.735662254813,15718.113420913838,1792.6384115334479,1293.154877370134,321.2860186719358,-4407.596516858599,4501.553479515626,15812.813372928735,1781.700685358211,1289.0456415189253,291.8055862415295,-4351.284145985622,4629.239176206642,15690.465619623026,1813.9442492639314,1301.0917921733728,314.1836112636761
-4336.0,4684.0,15612.0,1894.0,1266.0,311.0,-4282.760863371481,4779.360839606774,15795.328273476161,1886.3489363572023,1243.0957370456222,308.5340053700108,-4292.884354796631,4491.125477159916,15415.109000055176,1887.1682562260216,1279.2039540078752,322.17314983015115,-4407.507931028866,4736.765979016656,15495.847483653222,1898.2033441961462,1249.7265392608795,307.78769901391064,-4261.085005028805,4780.109699793743,15638.385133993135,1884.6606626575212,1270.8888072200857,301.0894492935713,-4507.711900345163,4746.524361330537,15487.650147542177,1884.3628507591127,1279.60005032425,299.1197579533906,-4361.987471921314,4744.359581247483,15596.434571447,1907.1481846703969,1266.3217817926436,297.2749726958277,-4443.408780563514,4754.563343522771,15590.970016794945,1900.944614040516,1276.334129484952,309.0500066408015,-4153.497976226532,4765.41308711995,15688.497411961847,1895.239365919317,1260.6124191587853,290.54840311527107,-4139.544845620446,4517.606829691712,15561.819314383743,1901.2454862100533,1274.6857487267087,309.7079758993259,-4240.03952863723,4947.639452636176,15735.772693160496,1915.272951402481,1247.295446954494,314.8819688612916,-4280.669432772861,4645.978632717437,15399.719221365625,1881.5450147458105,1278.8031505778729,306.23250719045546
-4152.0,4736.0,15556.0,1890.0,1410.0,366.0,-4104.234768230156,4601.066093062153,15560.393104363877,1899.306670580201,1405.4977720520385,370.38787654766537,-4211.132595487523,4728.837455296048,15622.728467579042,1877.8514308723118,1420.8323134416416,372.2447111385419,-4146.18356868883,4820.478844688164,15777.081802711067,1883.567975917281,1425.436686441509,360.92735855449916,-4158.8409694241955,4595.051622136379,15549.129853164291,1891.5891733969659,1411.1916221910747,370.6335099207624,-4141.080865810047,4672.102761011418,15603.929834970591,1903.1441102713648,1414.4681295060298,362.23225149095424,-4144.113596600324,4588.00229267496,15368.747447959364,1902.3742086750617,1405.236346196715,375.75803571182547,-4156.441422687903,4905.018798303087,15577.581390684007,1887.5025005733864,1405.633357101593,356.3208025875341,-4018.3976953361553,4731.831838232835,15579.61613357984,1869.7816708912283,1398.0507102238591,377.00574676034375,-4041.7378281386686,4627.082739890006,15427.914551219897,1900.1175352426064,1404.7446731567302,358.1368736625975,-4321.0293885674455,4811.749917886018,15517.794401903748,1892.0961588661814,1418.3458886722206,380.18117212655096,-4022.209840523821,4764.024170647928,15573.555699065912,1883.6195253222013,1412.1245775868076,363.9732579634829
-4148.0,4604.0,15392.0,1789.0,1412.0,332.0,-4188.452567133392,4656.264840834276,15376.994291299927,1786.8962998264,1433.0712477426096,342.9437191867847,-4088.7189910391157,4494.694046813511,15425.046970857198,1799.8375776638,1419.2024514162015,336.6951815954569,-4216.7431201997015,4447.953401929758,15309.673901235834,1790.7979619180328,1407.4179914872648,317.677461640758,-4203.036398732125,4617.074260001725,15407.264130215655,1793.4667372334545,1413.1114201437326,325.2298804336866,-4235.9071545882,4831.502369076515,15399.216311405698,1794.4615112003414,1408.3050346050125,352.5441328105699,-4035.128495883924,4736.557751801182,15313.309962297495,1797.1190923861723,1402.4766188083402,335.0847373110863,-4001.013004579611,4576.183222409015,15471.15842294428,1785.230749228836,1404.2675404305087,327.364121321418,-4088.4896877245524,4430.534144913807,15159.412944526053,1793.7047592231502,1406.718657076481,310.3415314917159,-4112.676603400154,4734.861420291521,15398.074517268355,1794.0841194302982,1404.8995007672038,345.1787679173483,-4238.654282109524,4713.1980265320635,15448.48478925432,1785.255795712297,1400.3726885145572,329.7977777665648,-4031.766107675251,4677.066961417517,15400.260497586874,1797.411284758378,1417.219736707374,322.2976776544675
-4188.0,4572.0,15360.0,1702.0,1472.0,283.0,-3950.0032894105334,4528.922181092424,15469.24176540716,1707.6084714156923,1466.3902267873625,295.4833137254791,-4296.491186513287,4624.083960591777,15555.665850208705,1690.388654300166,1486.7433761242378,287.52952377535024,-4071.6977347888987,4708.489422536099,15475.621080057625,1707.7054145708682,1467.5724649127123,285.8976516014296,-4025.505664439202,4527.153683778105,15463.672609783713,1701.6382620514482,1471.9423426424894,292.50991234347555,-4220.7272592804975,4644.354718881992,15368.369937311687,1705.5466648216802,1465.2548144177533,278.2391202214346,-4257.984966786358,4711.674428945182,15309.756432158703,1693.7814489316286,1479.5163592170427,299.673703495696,-4170.146215492395,4483.772892449489,15310.415727228272,1694.1078694753792,1468.6511968751934,255.38814431544353,-4107.477542753644,4557.276866984423,15441.51313134606,1687.0757822518267,1475.9120496791718,272.92286474529857,-4136.035278311925,4621.274495872771,15475.069751865849,1703.4717817949993,1479.424491840581,282.0945075810795,-4250.639449362321,4525.342229613002,15452.565166848166,1701.1819525921971,1463.416034499484,279.4249086324858,-4201.280653898736,4784.397306819321,15421.095883296963,1695.0793258566484,1463.42665004645,288.6537457440098
-4208.0,4496.0,15440.0,1756.0,1475.0,140.0,-4072.343159465622,4631.252307000553,15295.678576402315,1757.7123112731338,1476.723449149731,137.24035352877831,-4299.363541382279,4466.271757759043,15328.395659016962,1760.8901432043776,1480.205742988733,128.0136335343347,-4110.380589873062,4248.638867187025,15494.891476158804,1772.8164625646573,1473.8721638949592,145.4008263792806,-4215.19668192702,4468.038561910473,15336.229422785133,1732.2733281108306,1472.0480608719045,148.77463279749193,-4297.714091761133,4557.296898782941,15428.544327574618,1755.6905605837296,1485.122055818774,137.0848166842196,-4326.431796371232,4426.660357970752,15402.868472424809,1745.4635653903154,1470.1307040321744,136.83309770200853,-4151.320631528569,4510.329548655256,15289.525016582738,1766.7996862896744,1474.4061250471009,152.6430713882624,-4356.801414514451,4608.007368792846,15371.290611070453,1771.3205050858342,1461.6688806685647,122.45696227375399,-4224.501473143772,4585.256055546059,15410.512525448199,1779.8278960224688,1469.0496675475147,127.5022368433275,-4213.16404903117,4485.0858350946,15408.370530740818,1770.7656793804206,1479.2323925389737,132.9564284653335,-4266.7231952496095,4630.071159933104,15420.794081725342,1751.9250558767988,1468.3796501166976,143.9016088452491
-4216.0,4612.0,15492.0,1898.0,1475.0,164.0,-4218.517323336742,4496.93549901837,15481.73033577753,1881.79880559885,1479.138489107361,168.19851845935034,-4279.069310506626,4559.750322920648,15503.4111393938,1900.9309537600213,1470.632660878662,163.58526192515518,-4234.541727622423,4459.1794137745455,15419.476187169439,1903.0568070986435,1467.7088896996058,157.18220607241108,-4199.674449613468,4667.824485518277,15699.11538701358,1908.0896737720068,1463.5057295318793,163.670731666065,-4045.070958646668,4766.992038252548,15567.025488151225,1897.9738979444494,1473.3962433259433,180.5509456559155,-4133.022351776158,4592.319773443346,15589.729394648562,1902.3811658686911,1477.2544465439933,164.12777968216196,-4313.115399658368,4552.127252891663,15604.014182881288,1900.5295160775925,1467.4152477828482,152.07601603686885,-4327.461111644749,4697.369965202361,15370.73475339669,1891.4203362818687,1464.1295557562987,171.47676220356033,-4178.275718433138,4827.655742627894,15406.087236392013,1887.1665909623935,1477.1789576809226,150.14612792867763,-4313.789566634708,4579.580312512653,15523.998587875763,1905.7717222617887,1487.3406802807922,159.46495862736094,-4333.257741647369,4666.136198782356,15584.957851189132,1889.7234996219,1465.4087056621693,173.71810133217383
-4212.0,4760.0,15524.0,1981.0,1383.0,97.0,-4121.6116994252325,4859.018341992768,15474.124490909853,1971.3583296936542,1384.58105857788,83.61790063728881,-4031.6556933419847,4813.974967193704,15512.348509837884,1985.0390973567305,1395.1765751542248,93.71803797030299,-4111.361730733882,4645.585507773345,15406.58510240382,1964.515475164023,1369.9203925115896,80.44244580868993,-4356.552099105006,4900.617544512538,15495.795333806274,1985.8002532322473,1387.1000380125274,82.89225566740097,-4185.693488073279,4758.1244935774785,15603.044726625405,1980.922116981064,1383.9135913570674,81.40246758883356,-4277.374287108936,4743.867799518583,15629.545174477907,1975.7341479391384,1383.0715183535046,105.11440816274897,-4064.3555803265067,4759.335208686451,15474.990034142322,1986.5166908795677,1394.7732542519907,102.06423361848572,-3883.167651420133,4698.565662928561,15549.879568420281,1982.2337076916156,1368.283474904589,110.07809827124642,-4138.880555129808,4700.672179729033,15502.621248875657,1974.1574769551917,1381.2223032090208,90.78682948764191,-4217.013417176892,4523.516124789345,15466.496544121908,1981.3806975284995,1377.9838126186985,104.83598377600265,-4352.987380658143,4618.77548948819,15550.189783933927,1977.3810751257834,1382.5431115063877,81.99171755383338
-4192.0,4800.0,15496.0,1914.0,1479.0,210.0,-4131.009306726918,4860.531518111661,15376.369077935418,1905.2325789038655,1477.8074235892682,200.51216102851166,-4183.842452629927,4801.515341788198,15595.877429963577,1898.7718793106803,1502.1557453399676,209.08336253551943,-4199.301425416373,4879.4468239516655,15476.866779743335,1917.8589340379497,1483.0801717511335,206.8113645857185,-3974.5313539202825,4878.249051090979,15514.640695891982,1922.6979497729915,1487.6636264873687,230.1458796142487,-4252.648317795992,4757.172735794015,15518.290361515365,1915.0637268731284,1510.4462891616927,194.42078178143717,-4285.7948058145175,4843.821057533982,15464.362335183016,1913.6218736398005,1467.6170390758073,214.57966407508476,-4197.662626226088,4769.960174162904,15496.350980711104,1912.6048935027313,1469.1354812365767,222.5742695267121,-4325.620426661305,4748.386803343161,15640.678126148736,1916.197883251139,1476.6685574693354,224.00723379396996,-4305.47838371356,4928.201610927476,15481.011581414492,1919.4432445902837,1491.7331575542487,202.310610917263,-4093.7427656346904,4791.09560042958,15439.76087731902,1907.8317074859838,1485.4433855160032,213.1011814872859,-4310.772097085222,4661.063890094598,15383.533717552848,1909.7120747731785,1479.4132196021008,222.59798558978164
-4176.0,4852.0,15660.0,1851.0,1608.0,234.0,-4103.141444754004,4861.3229629555335,15506.466827129163,1854.090709747119,1612.615404642841,231.9363017781226,-4260.644608644011,4992.751116193411,15607.901172755992,1864.2239228438302,1604.5329407145086,234.39785954652785,-4235.254639043977,4792.180063485949,15725.484185531013,1863.9148431403446,1622.1637009592268,224.0649055035423,-4152.340685632737,4948.058704870151,15657.845043490628,1861.792763915048,1592.5770227491325,215.24353197353588,-4307.788007151763,4810.410606041765,16002.002540234356,1858.6133558274078,1604.60216830391,231.0743585371493,-4085.820906746007,4905.450390495721,15754.655344789328,1849.8188460161339,1604.7704985128823,244.38382305428024,-4086.543814136164,4991.482949543707,15659.684064416668,1837.5854639312217,1607.9650711390404,248.64513265949134,-4065.007548800004,4978.572770995749,15712.159365929907,1854.9470431122465,1595.8872928673297,228.57271993216452,-4110.2665596783645,4753.241275693426,15721.546325005085,1859.4706408745276,1606.9392252131333,226.11699513797518,-4342.93660968812,5002.058722517172,15643.67807456396,1849.1082872991162,1597.680959199414,219.03729878550408,-4008.7729082642863,4694.974546664805,15602.070996505885,1853.939709441386,1606.8058804887557,225.29516953914478
-4164.0,4828.0,15752.0,1779.0,1565.0,248.0,-4208.901498185016,4781.579513770249,15786.626108746521,1780.396014126946,1581.6864028046357,240.17864582091656,-4268.3677422161,4953.7420062461015,15634.185381649297,1778.4856447301581,1574.986993944249,245.72293038142678,-4183.141388096242,4863.604650945776,15669.218963245079,1775.8514085503566,1563.2154759700397,244.72988363146732,-4260.167238862996,4862.170768187272,15857.007061053393,1763.9287453536956,1586.454099869241,250.47033290988128,-4107.882763090432,4993.22272823267,15731.941644579909,1775.0372953831352,1568.0486297985617,252.12991806280831,-4160.727048917356,4825.460145831792,15599.206541443842,1761.039160542703,1571.7586066810366,229.99342044603847,-4220.284234261577,4781.461964183566,15637.79570565566,1779.8120095496085,1558.6055506517278,237.72762835188053,-4100.344631462634,4814.275544469157,15776.429654024727,1773.6646861184909,1550.9833989879055,254.8745123442963,-4140.788703637314,4757.272826993364,15910.828815413392,1779.713781840801,1570.637708477804,253.96339816845358,-4107.424433311328,4731.9013803009075,15816.379872445059,1791.177215833367,1537.272408830544,251.99935029626982,-4124.494622802276,5062.479453522277,15903.203752378678,1777.9135652086788,1576.6266860654353,241.87640225159404
-4176.0,4724.0,15624.0,1837.0,1518.0,244.0,-4036.3480389070874,4863.763869656734,15607.66072985287,1843.6426076341897,1504.6649571124995,243.3673155404309,-4102.32824796926,4718.759043633293,15500.256863210128,1829.7489717154642,1523.9479106219094,249.05752123835225,-3842.6764472664945,4668.191783139419,15628.025544973138,1834.1261139322964,1517.090834728564,245.76289197501623,-4063.6403420411466,4751.879906729367,15615.756201320586,1832.781383972847,1503.2830795186692,259.4493924197711,-4250.64186987035,4686.09712391914,15578.722950300817,1829.1735545946972,1527.2738900681602,249.67495807256003,-4312.511025447397,4661.739981765547,15675.096803256818,1849.372014606286,1520.5822584192038,262.02936332128854,-4278.11300232056,4583.992341557594,15583.421244055626,1825.68326152096,1508.2082028701398,241.4529545018986,-4076.754334134431,4871.375294495877,15606.1264397169,1816.342890054883,1507.148229040553,248.69401381409108,-4183.632317241612,4728.911635940311,15773.591264309236,1844.1523576335326,1510.191231906718,253.28764689230684,-4158.771834853316,4772.881156564488,15690.80971791497,1839.9728455644977,1509.4240129639415,246.28652577615233,-4241.066230453511,4625.693792612849,15618.830737880035,1843.4637995262162,1520.4847799880413,251.18776136241524
-4232.0,4844.0,15604.0,1740.0,1412.0,183.0,-4309.346542404767,4932.136964632782,15581.789263508235,1729.0364280450126,1416.285785942599,198.98807324644932,-4255.28161765287,4938.891954679996,15496.348456705457,1722.4381613477526,1410.501659808528,184.12549707298464,-4325.680215857692,4828.98099415571,15492.273381889805,1748.901913010203,1401.0764078867433,182.89549652627716,-4282.603462334004,5065.493874923577,15638.610501065035,1732.1718275710678,1404.8731163965508,155.78993384561988,-4277.399471445357,4842.17505830705,15574.16969522134,1740.6761784644632,1423.2282579166417,179.3849390806573,-4101.628087527304,4755.348450556722,15648.685273080202,1730.635063888066,1393.2773100422648,184.2638674467684,-4210.950795984745,4814.122697371238,15823.862653344617,1744.635531369172,1413.1525582494305,201.90217424657988,-4213.552108569027,4726.293186417498,15661.872210081772,1738.653558299259,1421.6506437596126,182.47274043956614,-4212.696484950708,4832.8980974515725,15656.694001385738,1749.3973209817937,1414.259866377145,176.5591286788915,-4242.8647039372745,4884.941802874351,15516.37424981398,1736.1222634920932,1420.2936770010815,165.21204131984655,-4318.316880154103,4845.479296597095,15556.033051861883,1740.023383649124,1422.6745126420649,166.24388862625003
-4336.0,4816.0,15604.0,1789.0,1343.0,162.0,-4444.076247273025,4966.773401587254,15636.440589482827,1800.0138559950617,1348.6105637239496,161.71386537663463,-4335.511344910761,4862.339710711976,15510.245606500772,1774.9196555555166,1350.4235540937239,167.64197084331948,-4339.741727911658,4642.244415371278,15501.727855347326,1785.3029737954416,1356.3982767844245,134.52834394757753,-4226.328203324103,4780.667537634308,15535.93436966806,1805.2424060540864,1348.2929189926472,165.7939141503697,-4350.604829687553,4771.629126546102,15657.4462974333,1793.873423782162,1340.4125163536632,172.01098523935278,-4320.739323476817,4871.424303781079,15531.138052239643,1804.6064611890351,1357.585152517188,147.48245087715503,-4368.734429115944,4914.870181575897,15832.133437453083,1801.2172600186295,1340.0340478718936,174.7051215187622,-4379.207514587809,4606.465548116308,15693.246437128493,1806.6529404057774,1349.3831116098015,166.70713606613995,-4347.2604643211,4715.213092254867,15540.21632779991,1791.1503095318265,1351.3569098405385,168.3821930517248,-4226.8942659644545,4710.9752795593995,15531.116536808933,1777.9511454476099,1343.704689066724,143.67151178674433,-4159.274318206968,4698.263687091153,15546.532262433915,1801.1818000384308,1340.1382035740396,150.9718496784404
-4372.0,4944.0,15692.0,1903.0,1410.0,250.0,-4486.665761971913,4909.934773966519,15818.026648851313,1904.9872965062195,1410.228278848407,254.12076420689002,-4355.109469993144,4839.750975741524,15883.20831253317,1878.505339896302,1395.0519219916177,251.7123968446769,-4488.645132064142,4952.361457159493,15672.923750916552,1905.8308313510765,1407.3970185204266,238.72276065589006,-4362.086454624131,4931.103375773084,15730.51360746781,1904.2676553390054,1410.5040661977043,260.2280138695213,-4282.150296979155,4776.206543541988,15727.015530914148,1903.8888566982407,1418.6243536292993,256.20118689182556,-4227.604795151774,4999.574092721623,15703.349140239061,1908.4624348540258,1419.788063652925,270.8829404758634,-4252.096042603069,5064.300867218095,15783.967325536762,1912.80845409355,1412.8575432094117,231.3405856773741,-4410.926256268869,4568.041013545799,15551.080279711352,1891.3532421258958,1405.0062033723514,260.2501327255765,-4291.486589007405,4917.776482933097,15686.55634017405,1892.6218123983901,1408.3763233604122,253.40028200046277,-4451.204228775992,5103.696696212526,15604.314719049322,1889.9292468682575,1409.7401614875737,231.68709359646294,-4253.877896424219,5009.410459752457,15775.39687505534,1909.9400113146926,1417.6208163879203,253.14655547459367
-4340.0,5012.0,15732.0,1875.0,1366.0,375.0,-4442.960794879378,5118.754157104279,15826.450660197686,1869.3482796766339,1371.174157559402,373.6561962050738,-4399.403524876756,5204.0623364514095,15837.989539422857,1868.5231267374356,1360.97973633419,382.90368625516766,-4361.324277076405,4949.525208095259,15676.348614640901,1867.2488993194509,1378.921543800501,369.40260840141923,-4298.021479251459,4997.308752668435,15819.610564038037,1879.182600025342,1370.4945021210056,376.4774959954709,-4407.283475831554,5078.777179883712,15739.010824363864,1881.5732672331062,1371.5822829820852,386.2654487181372,-4274.614415428633,4945.490711614717,15673.120906998734,1859.6454800810457,1360.3062367534317,378.1379110336803,-4387.34117872838,4876.5751959716845,15650.636688697767,1876.183773304944,1380.2451704850691,366.60924609190363,-4199.167046788691,5065.763202127392,15731.165443047106,1871.4879469423606,1364.821395319927,367.3117808884186,-4359.5855786541315,5033.181036230611,15678.824666326233,1874.872393912299,1367.7490824176086,360.80438659631017,-4356.637966547616,5038.695485325741,15714.688017885475,1887.5382195661198,1372.1355599402714,368.08522595568974,-4368.5674825846945,4939.20112364601,15696.126254456665,1864.305275244155,1350.003297790936,360.10819409078107
-4244.0,4916.0,15744.0,1763.0,1312.0,448.0,-4236.554346295962,4986.81404750707,15922.601001231773,1781.005555908517,1306.7272461584048,446.49964943022917,-4192.150072570662,4921.689502477218,15765.820733037073,1771.7867210840172,1309.8495593547957,451.24848529883815,-4415.032148736004,4921.023402008609,15765.206541877364,1756.3947063164605,1307.0005476307185,460.80744130361757,-4182.00173630464,4851.855435035032,15798.944380191075,1756.933017051212,1304.9595015077189,454.4543775239042,-4266.493453300511,4961.0749318593635,15570.53742534093,1769.0236961791936,1307.7469826461877,444.47660611221283,-4104.927007071854,4711.279321518681,15809.35219972402,1756.8590823786315,1319.2579448917857,465.60390730509255,-4306.29611445499,4784.244441412404,15774.415049001527,1751.7040283351496,1311.8314677837393,443.0514782583875,-4184.350781652175,4739.801233307042,15602.190877087733,1766.4726397177183,1306.8505949537139,444.9925713380354,-4423.103604414351,4951.934839828416,15755.722121430197,1753.0503402237096,1307.4433231252547,429.6592042361416,-4393.189607123256,4948.932198573936,15835.639019070979,1752.878939682171,1313.5701415120222,443.0189327536074,-4144.750336464715,4807.167827409526,15497.817678111383,1752.3713937816722,1322.266362337813,449.46996450839265
-4200.0,4816.0,15736.0,1713.0,1283.0,514.0,-4128.870771579501,4755.324927192335,15741.255446684012,1729.1752353768763,1282.6386875629587,521.9617517644439,-4239.048383758403,4944.627123754148,15712.631112851197,1715.1400866124445,1290.2202445258908,509.93848230676565,-4298.920630417356,4722.46983414854,15867.900888418444,1728.061263867211,1279.277365089942,517.0909646540889,-4233.2576146517995,4915.515256695774,15730.055850755256,1724.4296274486392,1284.594605374213,515.1244919324637,-4225.54535118538,4749.415523992765,15697.158270664568,1720.7061308896239,1279.8934151491212,522.1360797966073,-4291.0435930220465,4898.3155685832735,15829.990067873221,1703.89680586958,1281.035701061997,512.5655123194097,-4368.743053201355,4835.281260452134,15746.31232974491,1715.5789727980923,1298.8624367721322,505.90301305763006,-4175.119709752237,4947.557869771918,15768.863235620034,1717.6374315290118,1275.820314297958,508.34772550221743,-4259.847092008041,4841.498163256224,15784.409865584264,1724.7946899462497,1291.2654465122603,519.4573770180921,-4097.728690828445,4864.449003283533,15679.02141205241,1723.7658484091733,1289.4397833669768,514.5576689663079,-4220.624334047541,4730.941455373865,15713.140349120431,1718.3083804475805,1280.5292182591513,516.362107490168
-4144.0,4744.0,15768.0,1795.0,1276.0,523.0,-4230.616137716609,4540.2113327250145,15730.337712285029,1788.523449860817,1266.7821163893611,525.3271049174509,-4158.882126375827,4620.731902213115,15795.203970670067,1789.5668107334184,1270.1454146386568,532.6182245328911,-4312.83705569423,4745.272870288631,15965.090693311391,1802.9747794139928,1274.6575772677447,528.9379430226944,-4328.279895014582,4725.135156218721,15772.149665395254,1777.7063435499444,1278.850792352656,517.3814707717812,-4041.745455740361,4846.676972709073,15717.283692098094,1789.674060087682,1282.2449173424934,521.3295353806551,-4100.482520215913,4738.169352475991,15682.972388155904,1807.668832016703,1274.248024590488,520.7909425104981,-4240.651060494985,4808.737041492578,15859.893453495957,1797.2115724836767,1297.5197460980291,522.3178891022451,-4126.545476157882,4687.50215640824,15755.602556933069,1802.6460695581188,1276.1679239667365,530.843810469624,-4174.31502347368,4710.766989322613,15734.308742268711,1796.7653138342455,1273.1545903250487,511.3003621422342,-4080.458113093006,4747.802010428069,15727.571678738746,1783.571651269433,1289.2257662326415,514.8635214776402,-4215.019181336554,4862.573706190942,15774.12247391708,1812.8980711969234,1281.0455394322596,540.3927068578853
-4168.0,4628.0,15700.0,1705.0,1251.0,399.0,-4260.360391775692,4648.5861422830285,15727.093681058548,1734.1211280673112,1254.7446656028667,387.45263733771685,-4299.332669554994,4563.528710543331,15835.24562036333,1704.688768066344,1259.8967052414034,383.71060069096325,-3985.387941236008,4519.183566786053,15759.818350168613,1707.369783937694,1231.1443283443164,388.2003396367616,-4230.0239570549165,4548.397008482947,15678.14735640906,1697.5797366053114,1259.9759302925772,381.16288234495687,-4016.656351395201,4427.682430353682,15551.3885019128,1714.6181182676598,1250.564857121794,413.58133261250765,-4029.867188293362,4500.957940063284,15600.50480219782,1717.5451045199422,1251.438493070947,401.38577924159523,-4280.845141243708,4724.767986321749,15647.801258514619,1701.3227138678067,1235.3761881051964,408.00370280697916,-4053.5795159934823,4524.627456083847,15638.323012514817,1696.2496813000148,1259.3080642072969,412.4646932193753,-4238.936825126016,4742.389988385129,15950.627885449117,1699.9334403886432,1247.954728148048,397.9139748049846,-4002.823289262851,4800.3758818689,15678.87861296774,1705.1996417045477,1239.6976855050225,408.86536498646586,-4127.3660637058665,4494.784213952342,15715.88369126795,1691.9744539081962,1270.2391852274807,393.3541731885223
-4268.0,4712.0,15644.0,1638.0,1291.0,351.0,-4114.511160971983,4736.441460931014,15658.117994783435,1629.0356112426873,1291.186076767022,346.8163561021288,-4290.856082139819,4659.85418897499,15628.959954945196,1650.5474016121225,1268.844544884531,361.6844764960142,-4093.795831346691,4873.780347399648,15557.183711311609,1637.3655534353716,1272.0911499827591,355.12714959464665,-4316.410788223677,4622.317980206491,15596.03913206562,1635.5987669820915,1295.685977046259,357.90330876674363,-4214.608366891258,4694.093190581405,15686.171544411736,1640.993485155916,1288.343938902068,347.7479245692983,-4170.215446814065,4580.878546261577,15792.113455218443,1642.9808781406098,1294.1886282180626,343.1088773457275,-4275.40874774505,4705.911658556851,15772.521477080612,1639.217988692152,1271.5979604007825,340.30910397038105,-4354.902794668198,4769.016673023827,15635.253708971906,1651.959031980017,1304.7410159547367,337.81642997463285,-4239.240867707243,4715.765789773675,15626.528525230997,1642.9880980764756,1286.4916062534012,341.8343944711317,-4175.086287707459,4550.587971364303,15712.721639232133,1663.8239488578101,1306.9302259929639,367.2381703117355,-4240.122519119442,4858.92792726532,15582.698729847656,1633.0900621603614,1274.3872397241448,353.50701384189813
-4316.0,4744.0,15920.0,1632.0,985.0,175.0,-4314.340066532792,4701.6568688232055,16085.114175381406,1657.7358257872756,985.6118461355102,168.15444810388223,-4375.869254773128,4694.953987332198,15831.326923252154,1633.0655997926,979.847882290638,174.33766631354968,-4271.24576764181,4779.737858337872,15946.601577517042,1644.1037529007815,981.1503321334817,171.2684676837914,-4236.54426724291,4667.394300969778,16033.100846677838,1634.6170981588639,981.5925548702135,179.50477825725574,-4275.928309943984,4859.3426375155395,16088.211861750144,1626.7668712227544,978.6161675233446,183.15321759408377,-4243.964943891339,4833.109073686314,15904.450840418356,1636.1982621056738,990.1089628309059,170.5954023677652,-4348.62111817944,4821.658893939994,16102.622057267055,1640.1594068905856,982.1896473591679,164.0931939410155,-4372.340136907257,4568.900407081384,15831.891464441664,1630.6829841238539,988.4516212998827,161.48992438005837,-4180.975308049101,4745.428717498479,16030.120316814111,1643.450853831396,1006.6293052350236,165.51299653276556,-4222.240238913855,4733.079211397588,15898.073814744832,1631.6690100454957,970.0036741632864,167.39761286285292,-4375.41261370169,4727.596221779074,16156.082561517214,1620.3715308875671,980.0684303645552,170.10982082283348
-3924.0,4428.0,15608.0,2242.0,1358.0,95.0,-3837.746472435545,4200.791340152692,15622.999694907723,2227.501537930974,1362.213396401025,97.55982062002246,-3981.852624977789,4376.329252483128,15423.82833699744,2236.2660741324494,1370.50686560213,84.67189187344431,-3919.8917887571497,4280.664683758853,15575.142783162108,2224.191858309738,1362.8669369529555,87.03243909052665,-3989.096203229786,4370.110227152356,15637.500994715905,2238.7851641407738,1360.971295644662,75.42039159728404,-3902.20180470207,4466.752835051897,15477.888990368965,2258.153611590722,1354.9194798839778,98.60449243240458,-3994.4713711818044,4441.012834028852,15621.991188565959,2232.034198845614,1359.0466236519649,104.29361994846066,-3768.975061395435,4343.3229755842485,15745.928558707283,2248.6665025615875,1344.5575726442107,104.44706157072596,-3778.344235940953,4533.040935886337,15796.64652476463,2237.7576048552146,1351.4326132480649,94.02368116363165,-3822.0395705386577,4731.241822690422,15696.494082379204,2231.507173470884,1357.8708082528865,110.14214230787034,-3881.5129971050937,4519.65793622506,15629.514130479374,2249.9606704608404,1362.5458426175799,89.2526395613176,-3904.835581663396,4442.417903276794,15535.959611104476,2239.3198797650493,1347.4252626676896,93.87715057060724
-4488.0,4948.0,15276.0,2144.0,1737.0,289.0,-4492.322738352685,4915.747357604306,15314.602263654358,2136.216852692215,1745.1306219207559,278.08006485129346,-4579.283009882143,5011.371153464206,15139.982321091009,2129.0642245726076,1740.4764016605438,292.69675209407313,-4295.8117543392345,4946.524764350522,15392.8671798122,2160.8399469410447,1729.1323480037067,292.9554917566184,-4469.279095559413,4875.708446901126,15275.099716305343,2130.772985537914,1727.3375615015218,292.74636705030974,-4554.29274723595,4985.267482092361,15393.68473489956,2137.8459711761357,1736.5582122816352,280.218005490759,-4383.518892372647,4909.569155421796,15359.985294982478,2144.62815281574,1742.478486851966,285.841857919019,-4428.437875542343,5057.472865056663,15157.70892639783,2126.987556930345,1744.3540121711835,302.2318660156374,-4434.285566866861,4810.121334939308,15259.097260064533,2135.796233640582,1742.682160256798,304.63417092534917,-4504.648546814731,4917.09982509647,15212.10911674189,2134.0961748467203,1732.8401214466153,283.11637733242003,-4479.497379963171,4881.431526779148,15228.36615717006,2136.2036889099877,1740.050771048741,272.6157669439843,-4442.9815889222555,5153.8262389459505,15371.325092412455,2151.5978792818073,1731.4054553770072,291.6629797852227
-4612.0,5184.0,15320.0,1551.0,1131.0,177.0,-4724.89275999089,5249.778091826802,15463.969072666225,1541.9437561125924,1138.5078640747968,179.3455295877393,-4524.836242083937,5271.057820599903,15223.219998362345,1543.6063051361755,1154.6916776777541,173.3705764498366,-4642.409500419866,5126.628691706037,15243.338226615657,1554.3032809745073,1121.4881519483065,180.66931241539714,-4641.282818179349,5187.788837975517,15255.04996373484,1556.254049311405,1127.5364913205572,184.5440335797314,-4634.2999320012605,5124.042940302511,15310.181343945938,1560.5387756607122,1126.4637161019698,184.07969765885568,-4608.924989869249,5412.386892586077,15252.053401041958,1548.1737656586345,1141.7051483881246,175.4061993034849,-4494.195891068102,5155.68270202637,15285.481394221288,1546.7363486818858,1128.0305074212083,188.58691844500828,-4670.777714898173,5203.155289402388,15430.53475850196,1548.9293775238946,1123.1164555479497,182.78607723452376,-4559.299516628263,5015.241862267901,15182.130529752749,1543.534238466747,1121.4404943488644,183.25295581051932,-4528.69989092977,5246.340406767284,15314.556153057109,1552.7557143217623,1129.2615625361489,180.35214344918774,-4489.934321856661,5250.324354068227,15299.009724354288,1554.4737690615896,1120.7091882590585,165.40117957412508
-4468.0,4784.0,15556.0,1525.0,1171.0,237.0,-4392.00395180378,4788.051901305438,15640.857849339116,1528.2543353732449,1184.8416835080661,222.7309707905389,-4340.075233149299,4684.479054941751,15582.027992588628,1516.6974445278474,1154.0649212672101,233.14944631286338,-4547.842667199458,4771.033608346321,15529.86866174097,1510.9776156836153,1180.548843649925,241.2333409516621,-4332.996724024103,4678.050924437371,15595.06744709877,1544.9106216517523,1175.5167202202108,240.03696145465906,-4375.720075505033,4918.248056248268,15439.359356653393,1528.9038796069885,1158.2394278770957,231.09639791438795,-4485.499200424859,4818.349475542067,15412.912949970085,1536.848202769974,1149.263169395173,244.18048620882183,-4530.433527768784,4637.179789345003,15562.485925120385,1519.433166583432,1177.3203627359212,238.226618519381,-4406.623680441605,4694.561811825279,15584.028639526443,1527.420916839681,1180.354970083575,254.78494144522972,-4440.018357545637,4832.837216831095,15416.368824975616,1534.1447868008258,1175.2337425425917,245.58176377052007,-4652.272725883821,4858.721864098838,15652.123434939487,1534.2387730432558,1160.2134491017875,239.20665171244994,-4501.284285725383,5013.712551096216,15572.098310609636,1528.8519139878051,1168.7206526711996,251.83483476417186
-4256.0,4704.0,15676.0,1401.0,1066.0,341.0,-4254.082332407028,4888.3822343335705,15640.627570269622,1410.0003598486853,1080.316319143311,342.510416334856,-4323.236978337595,4755.08669715906,15664.983134397591,1394.3859032252758,1071.1062220529707,351.5998605462484,-4096.902825437011,4577.64241045969,15627.976517778205,1399.7490088385637,1070.001242125558,342.93168036119596,-4300.355313493012,4656.208219331723,15656.236575871237,1404.9188717433822,1061.2178714416204,347.5870227456984,-4444.90273208635,4687.29514285739,15586.915962281359,1404.6525339018467,1065.0533033882032,346.8025515631929,-4222.519823722336,4622.315657642916,15715.362191660633,1416.8591997721876,1075.0884103194364,331.2777996320503,-4150.185826093038,4705.724185323091,15803.80987676239,1398.6724223890221,1072.106043497332,344.6570082160084,-4359.154465189142,4755.562261987749,15879.227421395437,1421.2781372161007,1071.6442465401037,340.2078135131664,-4272.073771750965,4630.753493237733,15696.09437990003,1385.0110713828365,1069.559263301918,354.1074660885038,-4342.070440487878,4580.342402400251,15583.507078746323,1401.4184348685963,1082.2476648479035,356.6338868858552,-4369.613707299782,4642.52197814883,15605.200428163878,1396.651774070552,1063.562532089452,336.606302894066
-4092.0,4408.0,15476.0,1774.0,1146.0,410.0,-4096.563281747333,4473.773767641719,15624.171159308495,1767.2096358304823,1153.4252818734751,417.6880042697574,-3924.9998937117016,4522.330858352071,15311.93289091439,1763.39635346006,1151.7044109309904,411.2224691906123,-3937.664188900699,4282.590227170354,15521.878558737402,1763.9055889995489,1148.23874931833,412.02019815741755,-3903.187984996645,4233.567279086847,15581.714051156465,1769.4461390846852,1154.1435040404735,409.3851972502423,-3914.635560575841,4357.544786254273,15607.466024891202,1772.016810820717,1150.1698008348017,411.7686938889761,-4084.6042307789207,4354.851950923425,15432.322407836653,1769.165229144812,1169.0985958843892,413.2342938484448,-4125.3000307207285,4187.174038870427,15442.076436346066,1780.073939488948,1144.1875955189703,437.7246192991645,-4165.074729828865,4415.26400490343,15588.12902208933,1776.3120199536916,1147.4359044622156,419.81486372452923,-3989.739979000061,4360.225341654328,15403.029887589775,1773.890410033849,1154.3353870065025,406.46791822403475,-3990.121304761227,4293.208925577636,15427.890623841498,1785.5290024783699,1144.3858358292832,408.93862939665576,-4212.20553269831,4390.566322343775,15299.73470627358,1758.5279195447188,1154.8219479104635,412.51322433686823
-4056.0,4508.0,15384.0,1946.0,1132.0,620.0,-4031.317399392521,4474.731922673282,15303.963070273569,1948.3712738358158,1121.833195380012,624.2994671789047,-4103.102094584704,4337.72187681601,15306.509521200001,1936.4736329571144,1141.8184159026528,613.9937336073885,-4068.0550738790334,4513.293754642334,15209.393949551182,1945.7361186702692,1132.5207919910526,622.0583495368306,-4054.3777768348823,4473.0667268260395,15342.771015471963,1962.7152306372802,1123.9078883579502,601.6243547326072,-4150.518689680956,4582.76962328302,15443.941333331966,1942.6435840850618,1130.0604902680195,621.8520537872046,-3962.215957576299,4636.546790831516,15318.564260104577,1951.1029149317537,1122.6920613915406,624.8136974008289,-4093.1060320515357,4429.611070946997,15346.718653340675,1965.4607051716955,1137.6375149407193,600.506907120833,-3968.9333998774946,4600.576646996524,15376.426806099224,1948.5201996649714,1135.6949617172045,599.9143218137408,-4221.463203219622,4436.291687908411,15478.945338696069,1954.8178324003773,1142.266671013251,616.6070961577019,-4095.143581978002,4331.420295462759,15210.267575380845,1940.6510448594915,1120.8732696070551,623.3746986150051,-4012.255765847662,4526.461585154886,15484.50003188553,1949.843929538967,1129.3643256889438,610.7935991386507
-3824.0,4556.0,15520.0,1533.0,1102.0,335.0,-3841.5154069945725,4435.017320374935,15504.074228364945,1536.8191783369648,1095.3445290159325,339.8239131260479,-4081.124536401348,4716.1702414573365,15490.484270530511,1514.0014831393607,1109.2521525429452,336.8973733172767,-3881.994256894004,4476.904859588008,15314.237560847445,1536.0094902966332,1108.7568727167534,335.8596184672845,-3884.082253241288,4413.285338375315,15582.918118957094,1534.8033179395366,1093.3526057713048,334.70693016658606,-3603.6804328557073,4524.331750135084,15655.169303816923,1547.3827081731176,1103.4990665261987,328.6908241126104,-3978.3178931395723,4491.262791804185,15256.462709830963,1529.9348231280944,1109.1496428875635,339.27426979455765,-3876.9638495142613,4439.547115880529,15478.15263141905,1536.2666033451244,1093.976288273819,321.0244032658931,-3767.8134763787903,4738.026323960481,15478.855243489943,1543.426569625151,1107.2711978385637,334.10846479698705,-3824.1475182504014,4679.960747957288,15512.147154031432,1517.2986509209695,1114.7101419215428,325.72362030945465,-3813.5116313162057,4551.510533242774,15312.18507587109,1508.7057951035058,1100.3345484331523,333.1036916912511,-3865.841551947078,4598.786769918767,15655.45599181158,1549.558997191869,1095.9960710060102,329.12280384488065
-3824.0,4368.0,15576.0,1380.0,1217.0,42.0,-3776.4942010765094,4360.248558205878,15592.31334125552,1373.5986365319905,1224.1734734239897,51.05645485183718,-3908.096297296655,4366.834421617558,15512.595500217794,1385.4663682970308,1193.3260552921597,46.62640824067895,-3648.8182534066555,4542.69314529253,15606.015655822068,1391.883505952378,1213.7324606299765,53.21867187819042,-4052.5069534698314,4464.311743269238,15633.151415455282,1363.3979804496846,1210.4543019080666,58.60187409884685,-3855.8272504453603,4270.924793581052,15586.588041741417,1381.0149675178666,1215.0869720683595,26.272084363239177,-3884.296199058735,4385.472446623177,15624.582329093791,1403.3375933881532,1216.6966240692211,41.403154712335706,-3705.819823714903,4442.033223280293,15588.574885004842,1392.1331202327458,1226.3478606276942,17.337900001931434,-3791.1728656738196,4328.909532224386,15524.903734394864,1369.588615684188,1213.1003828061287,43.91055359216741,-3773.137661942986,4464.475095198322,15678.56456535584,1383.17886106906,1233.9836641491238,61.90423182974543,-3924.9359342770385,4410.4953008797875,15493.202092776679,1369.3289788329148,1240.2117107570848,46.22836465013651,-3649.149094225625,4224.6038460654145,15522.714687525307,1394.8094768060362,1218.5757642956564,45.99614056859162
-4148.0,4648.0,15652.0,1878.0,1394.0,-8.0,-4060.236159324663,4617.621575909621,15602.69951371838,1885.0140144326235,1399.924649958691,-12.558412718957456,-4177.983826544539,4876.818698737769,15747.58208484836,1870.9765899708755,1391.280279475497,-15.953764395274938,-4076.0774820135143,4782.807046848694,15512.003814010668,1884.2080796540936,1385.0824176990739,-7.3388219057346635,-4016.3678265677418,4530.8953896291905,15678.70244068745,1867.680035108786,1389.8307219921335,-1.3135543589392054,-4042.8981573656156,4538.372169319078,15725.285724974567,1893.3604021985768,1390.8783777693639,-4.119289867759857,-4278.985971700697,4816.460087369467,15631.96839754759,1875.2551104701545,1401.3732947057701,-6.203254118489586,-4023.0458858709812,4879.913311948295,15553.929483015045,1884.4951741128648,1391.0259465783429,-1.8418135687369386,-4076.3643540575836,4657.383370828801,15490.890338396044,1875.4268521299202,1368.5592636548313,-20.369913912043447,-4262.307614731629,4690.652662961607,15675.754627943028,1893.603601756226,1403.2191808933153,-16.91090203088031,-4242.1296597130595,4606.3188356331475,15550.25299331555,1884.0678824628192,1384.7680734127948,-17.935536587919596,-4138.510811690016,4734.056227773289,15752.386774967381,1874.7701563705134,1403.0612656474755,-8.958643656286116
-4176.0,5084.0,15660.0,2010.0,1393.0,122.0,-4094.329612797377,5161.14670759316,15546.08294723459,2003.062746058553,1404.5740118773092,119.6754323560209,-4292.47594178554,5126.5932595538525,15634.849691172269,2008.1116462419293,1402.3568425903593,120.80628841834297,-4116.202694227246,5194.328124691813,15581.568528868604,2012.5158323267565,1407.8254173650237,114.46901546224989,-3961.4893223932527,5074.179914415919,15518.756812592546,2016.8848801515144,1404.359378325491,107.62475987890842,-4206.517171631704,5346.072104001311,15587.75750216658,2014.2065451637616,1388.427573106554,119.31530243401056,-4282.08572154826,5079.877262413736,15678.484323315628,1997.693424927486,1398.6559006629207,121.7006153189296,-4310.760520679281,5245.7576531728155,15773.511407774235,1990.8196360160623,1400.669106580255,103.5030555139016,-4023.060751194551,5242.271703620813,15592.077908229568,2007.5255008891672,1398.0578043464645,117.43831131365144,-4306.498046710018,4987.293684228003,15896.281129720846,2004.7744832584426,1404.276549094008,112.54890405575367,-4187.072014117113,5163.909560921595,15716.256502086084,2009.7263501361685,1388.7972752661599,116.73573582888632,-4115.693054222779,5152.8047287887175,15560.138070651272,2016.6698508493862,1393.4346010568172,123.82859159345044
-4168.0,5236.0,15796.0,1771.0,1405.0,211.0,-4219.49255742484,5202.819813274885,15812.802206427483,1758.0001994794602,1397.152169440831,220.12144021536042,-4183.1968736711915,5261.292263367154,15755.174451007217,1788.2659191305895,1404.2934722375496,216.92398573337994,-4115.284223299861,5428.097378757471,15677.97474950016,1765.2100341219113,1404.2012833100116,217.03583477559428,-4187.712833443459,5229.085424664331,15600.38340327326,1769.7687473148062,1403.124708934025,213.1684789052879,-4169.53585516892,5209.048870606954,15894.25291612551,1766.0318873065085,1413.168610618174,202.5539317372719,-4062.0354983550724,5308.079971887274,15869.634176648842,1777.6985079204865,1404.261995466149,206.60858926869471,-4055.697612261624,5254.850322055803,15710.73135408436,1770.1040868397458,1413.2237765280063,195.1020846247963,-3978.688523018398,5360.492302636854,15822.562560590783,1761.8801768375567,1404.5935534004445,211.8264288148827,-4151.7690465438045,5184.308408887503,15724.740818700797,1768.5562908911252,1392.2615694843805,206.6879405651962,-4158.0958193311935,5380.395836504822,15851.800904343423,1777.1781507822586,1417.9362705222711,193.06294106780618,-4140.415960560333,5261.121705157082,15827.112689047437,1781.8014544399277,1401.924338699275,214.35536298366594
-4176.0,5144.0,15776.0,1754.0,1346.0,253.0,-4226.799827111405,5417.448405070587,15904.474189266555,1764.1944082391838,1348.5968719182554,255.40900368928465,-3948.1403392012276,5129.5732363590905,15906.990774643107,1766.232549502801,1327.3720769477234,235.0408364058029,-4092.721219528827,5082.91320233703,15861.120327696453,1750.9611607840156,1342.02719350337,228.17313646503726,-4254.1996220219735,4913.874968108546,15785.480943855913,1760.5261082982158,1361.2165825291108,256.0817324230031,-4217.016899360596,5137.800124546073,15559.688424594136,1754.840118712202,1354.4525776607386,240.9278718541092,-4192.519707896588,4908.408138804116,15776.521872995045,1751.1741738442274,1327.0598951525676,241.3858905337096,-4173.917419654474,5005.870359765117,15796.157150471072,1758.2418371605036,1341.901457734024,242.58690737601174,-3946.3537413728304,5291.625795708324,15967.778922036685,1758.4411859350466,1321.497778438142,254.33444159790537,-4145.477895929348,5087.921298092909,15866.458246465783,1762.5432786116135,1342.7095750513008,251.443476833446,-4112.57298201092,5167.913843848488,15773.183907743429,1748.122236719476,1340.833332632216,248.26796071579946,-4126.304109492154,5048.573384608737,15753.97759702758,1751.906106796676,1337.5895400761067,249.35241203347002
-4156.0,5048.0,15640.0,1817.0,1398.0,376.0,-4024.312685648082,5103.517638849577,15698.447446563312,1823.01762341248,1395.174682538752,395.18043459089455,-4102.413389995066,5075.447425371205,15722.588087744047,1803.6364646113982,1393.733510706266,383.55531385327004,-4192.9377866354625,5059.408246880503,15663.616914289234,1822.0302536563868,1398.1377325300307,385.985010258164,-4076.941471368519,5026.70501110662,15701.39090862264,1819.640021946239,1393.3603907130089,369.2562017425601,-4146.215773229592,4990.969991159622,15693.213333385002,1827.085792595559,1395.2774132445504,364.5927261040119,-4037.2789209377934,4897.063708658836,15675.6238388025,1796.7859570188402,1399.11257659095,384.818040706928,-4157.522052746697,4804.27389286109,15834.165932042662,1814.1110253376935,1392.2131178382224,370.00218212289485,-4094.5874013923417,5158.770579429708,15695.478274115843,1806.390057170397,1402.9091673064634,380.4061427378668,-3991.996005655545,5133.644803752157,15563.6787279079,1801.2962974568122,1410.047992021209,382.76433561557076,-4215.442853419737,5147.714996728544,15631.1141916018,1836.73845645028,1397.303403987446,382.473479586004,-4002.7299625609094,4975.266213838323,15706.970688234731,1800.3903981448782,1406.344171657972,380.89492228689966
-4192.0,4988.0,15656.0,1891.0,1443.0,539.0,-4312.5750860225,4887.535390014205,15703.610256448464,1887.970414947099,1436.8886519618748,534.1117625969525,-4229.2260611023175,4951.073122108511,15657.625779988262,1901.6737205166123,1440.8447336856061,541.6297965717805,-4241.012468847553,4987.344843279467,15728.870650110792,1896.7683580573203,1413.882173133937,535.6841211445274,-4277.176097532877,4901.880854498949,15660.579430207394,1897.4319858102674,1448.6587936162796,559.3502758468284,-4190.922589942108,4971.34823567968,15659.37550628126,1889.533061946273,1431.3733591704838,544.0190782049565,-4102.9208896483005,4967.186848828761,15675.772316855808,1889.3050114935872,1443.4625093258044,543.3720375604443,-4242.024164083346,5110.992564457611,15740.326417977923,1881.7490763114995,1457.075814329928,544.089863669023,-4050.3103407537888,4948.499142788757,15731.655157811945,1877.1141125947029,1437.013067881836,546.8443536316486,-4007.5521536047986,5107.2188905561325,15559.713478430938,1896.228435654129,1435.835657084058,529.909563131399,-4175.2620409158135,4909.237835361524,15705.604098412581,1872.6348647884206,1434.0250482465385,537.878766373406,-4240.4666326522165,4970.71063938277,15620.350401276908,1891.1745557032123,1437.6867019181227,537.0634983010981
-4116.0,4936.0,15752.0,1727.0,1208.0,536.0,-4285.87879241787,4885.4985322238535,15606.062831623682,1737.0524013884042,1211.554006927713,542.0005493173522,-4152.380164394478,4830.270156662237,15647.910723475981,1710.2048482282173,1201.793629913627,531.9778627569646,-4015.7735451203534,4846.160846228667,15843.457516547087,1719.5636819644797,1208.6700922948692,529.9712555372485,-4218.608688500595,4672.617740985559,15850.713358073139,1736.5391688721045,1190.5767206009496,545.9170701934327,-4122.683015308179,4812.0638228943935,15723.139294380211,1720.9021600794715,1196.0867510416701,539.6208933196162,-4296.015315751924,4956.246823716375,15851.65553444085,1740.0632418619455,1202.1684446333536,541.7241793697466,-4139.991560356399,4789.09611928494,15608.405158876556,1730.2462294494253,1203.3881672583616,528.3802162410965,-4155.278346418075,5053.113509886942,15852.68595891655,1735.029786972083,1216.267584521225,541.0772744787557,-4213.447329147562,4846.884305457762,15793.406119541376,1726.0283589934802,1211.878337142717,529.6730928822076,-4065.1621252704945,5006.921889607659,15731.97968301915,1723.814501960688,1197.9050248422318,523.4239147880273,-3900.0323187261492,5005.889488879307,15705.064775227462,1728.1304202039962,1221.6141836334082,540.6802111971542
-4080.0,4672.0,15684.0,1673.0,1195.0,431.0,-4242.6554683858485,4714.465825819476,15668.895073872032,1664.1626913052655,1195.739962146752,416.38624169247237,-3925.1924723148845,4873.159492954463,15744.803454175988,1675.6131966148087,1186.867909353485,436.03527040839873,-4308.008323265735,4713.3077319599515,15672.497484377254,1679.2306858012932,1192.3000516445957,409.65662365053566,-4203.574517357748,4730.897612305922,15665.765557330917,1683.9914669101454,1189.8854508068266,410.225912232864,-3932.681804629645,4681.809388122932,15522.578793542993,1669.5344881658054,1215.3547290900797,453.2094794951839,-4100.180627414165,4534.813827837225,15542.402333961816,1676.4277908723557,1188.916029670982,423.6139241356389,-3940.7313889832144,4609.393900461474,15604.705339007563,1665.122519944948,1194.3821440179142,427.5707415574355,-4051.791589499391,4530.7398317419775,15600.21809198246,1668.6904640312962,1176.3125149777168,418.6761732819286,-4158.208908687637,4498.782776191668,15794.69275445536,1669.1759852152184,1189.4347539257362,419.4931183184652,-4005.602626305217,4680.656530363546,15782.801329779388,1673.6052919125452,1192.1473583992897,421.225873656792,-3978.336156631201,4824.106070049999,15835.703011190313,1695.4182807393918,1177.6232835269016,428.6058608442696
-4056.0,4692.0,15552.0,1729.0,1247.0,335.0,-3989.8961677800603,4573.149446168442,15566.14896488409,1740.0628724124113,1243.7064887087508,314.92093654409547,-4038.466365477721,4782.853106424893,15568.503960637627,1726.0569850754543,1251.4331274131848,337.61007816274685,-3940.682835197667,4589.198110181715,15579.739138174913,1734.5078470443038,1234.4979829107763,332.10101396055705,-4016.797342869631,4694.958180497804,15514.158819006432,1741.3477932769736,1256.8712265619731,328.8443647829969,-4024.5558476083606,4749.075379493045,15574.628905874057,1729.5501922108685,1243.6592524324544,335.1804665247891,-4190.465585544622,4756.430400288451,15200.365505182013,1717.5081885748361,1247.218503991893,344.0997920437336,-4096.30631016733,4694.809135725485,15660.18041724207,1744.2199937974076,1264.3846574433926,341.22464858918676,-4013.9927646780366,4758.7673509383785,15694.785966453312,1714.0554508228763,1252.535886654146,336.31207235185417,-4161.376270023373,4688.66642378141,15578.384591658049,1726.918982023592,1239.7654765166603,337.73250455333607,-4148.704162027193,4406.224837022925,15689.59035004381,1741.441868091978,1259.4289877363221,332.51411883941876,-3934.7423801584173,4524.856858822526,15361.364232435135,1717.0563644514154,1238.2176240067893,332.1598205210549
-4084.0,4724.0,15576.0,1617.0,1135.0,277.0,-4006.7207262063253,4755.9055204232845,15629.198732694396,1617.6589012601582,1158.9036103469734,271.533145660057,-4140.852439838585,4736.364220556593,15644.626180846259,1627.9276287366167,1149.722533311182,267.5958534355185,-4059.7246369983222,4788.902576546045,15548.062677889277,1616.398666926916,1105.8686263943418,272.554215791976,-4022.1239281123385,4583.995093458687,15360.93717377354,1618.5176688010727,1136.7495151403368,273.54701444913474,-4130.692555276651,4799.484803226364,15519.41813072965,1605.5523060049745,1135.0918726956813,267.70998962339706,-4072.677112584816,4656.794893783678,15500.734435378077,1604.334953475473,1127.3767356831345,293.16943675008434,-4114.634791590688,4754.472967198073,15693.889640370384,1604.2266185745148,1139.6028068334028,268.6431284936447,-3884.527895237343,4816.966646804635,15650.329648731276,1621.1011736283572,1131.1921357021013,276.7080504433609,-4088.416795352821,4637.255701104208,15646.394778277552,1607.8579339373132,1147.099782160988,265.4052741526699,-4098.958011249242,4687.701447800437,15404.229990685828,1623.7873670475137,1128.9076054953596,286.3320169623197,-4300.457930351989,4778.203896328983,15596.986633496585,1609.6758824564029,1140.6911531787548,295.37003261507994
-4060.0,4740.0,15740.0,1582.0,1156.0,247.0,-4031.6958558894244,4752.792717098262,15787.88279693564,1587.3098926394664,1146.3778575981064,252.25804259132235,-4022.036612230246,4695.3036827529,15789.322956635038,1579.587729158067,1134.2686927879984,253.02071178510485,-4184.863892550773,4707.151153289357,15754.485628919025,1571.8687344831399,1151.956775776975,249.51783076424783,-4064.496001862482,4843.468280574408,15887.213575381249,1592.5491792650018,1150.7779854895748,256.8055728868747,-4100.137759811549,4834.328402606846,15824.092502618227,1566.6549871319444,1156.6621234294462,245.34593780818315,-4117.384292676268,4595.211403237324,15707.624710786315,1597.5108931438335,1141.9219201154933,243.4080278544219,-3916.0196212823557,4699.9929926039185,15895.22538776987,1579.358114400434,1160.6462215597141,258.03153001421686,-3867.4660192798074,4583.10855311117,15689.346937887107,1600.8537624795833,1149.4874260685338,241.87692095569372,-4090.3854548558743,4672.350202943797,15903.64678785212,1573.2616895968379,1131.2506687047714,249.93798200816136,-4097.847514181194,4640.7904958921945,15802.447563211083,1575.4225526539947,1168.8103132480746,265.6882218654682,-4091.241675028429,4700.814047426649,15760.983355224931,1561.4705130877032,1157.6939823298399,239.24240248551772
-4000.0,4700.0,15476.0,1796.0,1273.0,347.0,-4099.320647725838,4824.885313933583,15384.8925997259,1784.442223680467,1263.9080696620497,356.3936831262293,-4036.943869961816,4545.308643324417,15583.001381725511,1782.9729253013998,1290.871758172691,347.80746187639255,-3832.035326644598,4700.3732617357555,15471.234424400944,1799.2494203167828,1269.7142411371608,349.5503541975726,-4084.424459393538,4732.870981277428,15554.144004330585,1795.0701910975613,1272.5016450775056,349.5386236297433,-4038.6441678876276,4699.9038349504135,15320.753131139447,1800.858428359582,1272.1834005051126,349.9077421060032,-4008.366719515263,4862.896381454268,15587.268159421012,1793.1725016086589,1275.2615964079694,344.7981110295269,-3870.5481344632526,4799.664238977801,15504.530160104927,1780.0599449181343,1259.1989812778459,348.7866108831547,-3913.401543404133,4909.121759386073,15708.445186850904,1797.3984558235463,1283.0473066409584,336.7505304867082,-4145.218668812938,4761.464693660107,15556.703938978386,1793.701990181266,1268.7982022808885,332.5228809193336,-4038.764064307075,4486.291934858152,15458.252536024627,1810.665041055129,1269.2238236714397,327.033500205009,-3826.053204710655,4690.899554681728,15536.721887930917,1796.164791769277,1267.7345626114184,346.8304803683051
-3992.0,4788.0,15476.0,1830.0,1267.0,346.0,-3998.6317498920885,4939.770630519127,15350.98206028716,1848.8619528064767,1280.2062170456452,349.8317891503438,-3908.812638795158,4682.357863751025,15504.282476055905,1846.9113535741235,1266.4556993853155,356.9994144416043,-3862.16265052144,4856.028518616775,15412.969716950043,1812.2335245648053,1288.6175728597732,340.1704039198183,-3970.5285400540934,4614.969660624341,15478.020323926057,1826.8656802118742,1257.6385591623816,342.2609684647534,-3942.952595400843,4776.59680838033,15575.55950763963,1818.92008113897,1253.5286110898662,341.23773483135597,-4129.756015543479,4907.326938630306,15407.114975597073,1811.2522886459315,1261.1831332060858,341.47886531511807,-4038.4847176772873,4716.237377063325,15587.214069384347,1812.0487515061013,1280.565470140866,347.4131699380977,-4000.4162209639917,4599.04304020944,15500.952783296258,1851.8508558215804,1275.7888497111787,357.5769289170901,-3880.634872705716,4764.591494731607,15349.076399721696,1842.1888128255637,1266.1081780101078,345.2833286996162,-3896.321230363026,4790.52149798517,15710.26201949543,1829.625626985377,1246.6050368917013,344.32967930694696,-3909.3980537503835,4668.710126385816,15669.912467864395,1834.6163427621632,1252.7472326761701,342.499994312311
-4088.0,4808.0,15504.0,1755.0,1221.0,456.0,-3988.433827522268,4752.514161949785,15594.73858836227,1772.774430114983,1217.739650104431,457.7981771900616,-4185.761528144876,4783.718856354403,15527.770317361585,1764.3011084202647,1215.6399789453121,457.98337740222286,-4212.903405247602,4823.0851809205915,15398.014363175394,1758.4345222762418,1225.2825520449996,442.5671649409355,-4112.844538394896,5053.135234557414,15482.728211839487,1745.3291189439822,1208.375882911026,456.41047890775155,-4180.117238202423,4802.632506804343,15687.402954651274,1756.8901728375306,1221.0010491541852,472.692916139346,-4014.940511818575,4747.666305001135,15460.288848789818,1738.9784706526957,1214.5496444936384,452.156891896877,-4004.0745559470565,4814.664387910076,15408.973390456988,1751.5738005683104,1220.350695717965,456.2990699402674,-4143.373417897525,4837.067417898413,15473.45897242018,1773.9210711021176,1219.4080141764175,463.61593256121046,-4223.989524457925,4848.575943081066,15460.070533955433,1759.4749719337567,1198.0077250524016,433.4575215775063,-4277.361822137331,4846.253013027086,15503.126828648117,1756.2681026967093,1211.0197066881522,434.53119098853324,-4088.590952687081,4645.582650583229,15591.980711249566,1751.8024321806124,1217.4838418886316,454.81969575694023
-4112.0,4816.0,15612.0,1666.0,738.0,511.0,-4068.4888162053294,4786.157034199459,15548.813091040232,1670.012124645095,737.4768841111236,520.399882900257,-4094.5451997518066,4816.135212512235,15876.45320088747,1693.3182402127557,745.58247350386,502.74749841201924,-4306.621690835497,4759.720921955852,15573.868690627945,1663.6869134613078,742.6224575923229,498.19565101223344,-3982.6386974653656,4927.1996162588,15558.894126906642,1663.6535015235645,748.5002024077462,507.2029258853934,-4168.5546287533725,4777.355169206641,15849.164082342177,1665.9338766043998,726.3405736237672,507.35755126918144,-4145.177030112365,4689.996345281986,15590.409827184072,1655.6395830261924,725.9114350654181,522.7584565059857,-4089.5218239159326,4787.051396285745,15678.325632111273,1667.375842743217,738.7914131671473,502.55378150487235,-4077.2714368147276,4894.796374802526,15566.499715688415,1660.1306249016302,732.5374381133037,511.2254381091055,-3961.314736961273,4933.165514377978,15556.43895942717,1659.1355276360878,726.9224755562442,518.1529857125656,-4171.543213127729,4800.72344989259,15621.309460961758,1654.9540548059176,737.993362617151,512.8639432734616,-4054.9484778793744,4753.898716818162,15609.56977989146,1663.6253792126024,745.4460128459865,506.2962037392664
-3960.0,4684.0,15700.0,1774.0,511.0,532.0,-3923.012459370145,4645.899573825408,15751.92383016157,1778.2267095425395,503.402333609725,532.7383209895053,-3822.9882265542924,4704.749855169342,15526.41416105053,1769.4022142492724,507.13712697674873,537.1748397614606,-3904.8939807147567,4588.557759087051,15795.77609915415,1772.3397510628304,505.1757842169421,524.843253147664,-3928.5093151820906,4767.84048628876,15699.592140618774,1774.599462850625,515.0761601136849,533.2675254776436,-4012.6394915695028,4605.445641248656,15821.755484422772,1768.0598173468627,505.1517916744826,530.5333455365397,-3845.5692694692184,4808.745076992207,15810.438530596663,1764.483001564863,510.9790552915927,536.5246216928036,-3793.894774131086,4572.502666433356,15706.045176116057,1778.773829628849,513.1263653601668,552.9565081246758,-3947.6389372440703,4540.506631892834,15652.856095074178,1759.611441443928,501.614706763958,540.2302023637316,-3925.5050278471786,4687.555108979907,15731.825756590586,1788.308993809476,501.34933615101664,525.718747856209,-4058.4964766409566,4807.045205818095,15625.465776111212,1759.5761123975096,509.21714097703546,526.0174528222103,-3881.2167263588703,4726.24671094977,15664.941959435742,1767.5832169676737,521.7132345247874,528.7297134230346
-3736.0,4936.0,15460.0,1933.0,674.0,625.0,-3683.612321225455,4934.07823393006,15275.426464943146,1945.5680648202058,689.3686343302151,642.2422021006713,-3856.2132718388325,5009.075955051407,15497.945046419898,1932.496213509678,677.9403477578214,642.7772538417946,-3732.3275077041376,4925.361822976517,15549.350419993392,1942.6690956814732,694.0152940534459,623.7620314688018,-3701.5868025203167,4820.771236762545,15434.906733072392,1949.323730260666,666.7092433431299,629.5660099876175,-3779.9194035382598,5129.707030640505,15346.305631751984,1912.4339353030336,683.1052377725014,623.6413403625415,-3704.486594053515,4927.42978713642,15409.623351457381,1938.7817551340777,686.0971434007706,622.1604151108272,-3617.8978307438197,5000.999911417187,15574.722439766048,1949.8466264285682,679.6231673457082,632.1648538390567,-3769.0117668316343,4782.346684082046,15461.141342583793,1937.4611541281458,662.524335419239,620.7854518721405,-3841.4602798834994,4957.850024738725,15361.329514613559,1939.2772347477446,683.5230691529595,645.8473070001305,-3621.532387942617,4896.97467031144,15571.267867310957,1931.0570911826096,678.1808128239444,631.7321602447197,-3919.978601189461,5024.125254246955,15408.419506984075,1933.619017946804,673.5449789204949,641.1305497673472
-3764.0,4920.0,15456.0,1776.0,1025.0,474.0,-3764.7125035574745,4779.978370912127,15443.513772350801,1766.0051985578552,1029.601678497589,473.56228388611737,-3887.2381510830664,4914.071286809313,15350.332498365295,1778.609479271159,1029.921077283737,476.114511660392,-3992.37276886019,4878.21830175848,15326.865547968291,1777.5908631079003,1025.555208817293,494.181557163042,-3803.5220547491494,5044.858192149203,15487.64846291124,1811.7729364163206,1046.6179092515051,467.9211331584808,-3784.2628132471186,4989.101066344684,15436.43782956331,1766.5949197790953,1029.7729713299698,468.86153825241485,-3748.73371976163,4993.201631611352,15382.52135912473,1769.9736851008581,1026.406723038471,469.17485603367237,-3708.6219339937415,4764.91952232501,15470.302797161105,1789.3435502777409,1010.9426237637721,462.4250673555756,-3948.0322841287452,5092.2078275577005,15393.420604907116,1777.6035347797738,1019.0913008476149,453.44250310339385,-3777.0296154626817,4791.528704837105,15571.996340133815,1782.8965202236673,1009.9536717746992,473.3263202922425,-3838.5782562241575,5007.018472084986,15383.190665124166,1764.0443213230128,1021.3049938538833,476.6402276039953,-3829.823578246462,4970.123036864734,15594.534783833644,1776.8808829449063,1011.8309421519557,490.6648847973018
-3900.0,4956.0,15632.0,1720.0,1300.0,486.0,-3971.5861383733522,4891.596775809619,15693.396409060611,1706.3483533814522,1290.5933417431302,469.11320933916437,-3910.1690113286195,4807.5821263543785,15558.835757465082,1719.4663437282002,1292.1449533531738,503.62616544330194,-3834.348269754421,5128.081155815811,15700.268105887788,1726.873853502867,1291.476299405708,482.70717036100496,-4039.9217448860786,4986.021386128098,15730.075859375347,1726.3674642985673,1283.9180657272523,472.38684360731025,-3719.2285977191123,5012.995912116027,15718.100595799242,1730.3981171718883,1314.808795887453,488.37001112769735,-3603.2809462109976,5062.504675427276,15533.576031917431,1719.4000265758195,1297.616055854273,488.74867997397484,-3968.6441580363476,4948.299477558816,15644.72044834381,1720.2337613356638,1299.4143925773285,491.29105227973315,-3926.6074766896822,5065.0289726125175,15713.938369371454,1730.3639834579576,1288.7049424730799,505.74565971217106,-3912.9088048036247,4938.461457181466,15701.558621194254,1734.1832838363798,1306.3479720233402,480.8118511026274,-4068.262146997811,4968.635856848264,15589.206475799496,1730.8562344010818,1292.9104023035704,475.96756855270934,-3761.6266063065036,4937.618265022581,15562.743848688331,1720.8411664129192,1307.6593662493144,492.26647473645403
-3812.0,4872.0,15676.0,1710.0,1408.0,482.0,-3780.6695541249373,4750.289120179459,15750.758468112363,1721.6764527028752,1402.1128218762608,494.73706103691484,-4016.346972594666,4813.988000428145,15607.501790383403,1725.101226646817,1415.5696659091818,481.95940100442107,-3751.1604955355397,4956.136007125587,15679.667459381399,1719.859460102785,1424.0332608066803,463.8297104126382,-3659.906270326996,5009.028453631135,15529.746487400686,1712.5378181098547,1405.5286756863825,490.24990980434933,-3769.6889190283873,4920.22798049295,15718.73185202204,1707.7742615505342,1416.6747842513462,465.54597480362673,-3782.569799702063,4933.590854311294,15785.625793695675,1701.3345656058004,1400.862283073118,483.2980101580217,-3785.226747132476,4947.099235010979,15705.11628469386,1716.8801580985873,1404.4157939884778,488.0001858824099,-3868.080299643773,4972.901314185049,15608.184090588331,1693.08701360783,1416.1692505088001,476.3820513560972,-3857.0993215577478,4799.368381864339,15498.310784042114,1712.1979033924574,1409.9772495647185,495.2282131551719,-3853.482745247251,4834.269578849079,15752.691794665972,1702.7801473999598,1395.71732954089,496.4089275903839,-3824.5421015733673,4910.03898875228,15764.649785123773,1708.1321054860205,1405.384214763927,487.450995169321
-3824.0,4760.0,15660.0,1835.0,1564.0,512.0,-3774.565863602425,4949.227826339682,15739.899953809801,1839.4590578150585,1564.6862797879196,497.81403325730577,-3800.14399432037,4771.182675517353,15675.601137187026,1846.0250969702618,1558.746195128009,510.112114351953,-3899.4248424026196,4632.769350150712,15748.018849143924,1832.4508555375064,1559.7889359409821,505.12603083683337,-3886.565931356216,4805.014833564941,15662.909179857317,1815.35906120745,1579.424433875726,509.0042009677745,-3787.825120376412,4848.420476084408,15801.46320578134,1821.386808949803,1566.6279854041977,509.32817657296556,-3851.5323800428137,4694.623407565701,15560.946810219297,1857.6208658099417,1542.4861870116258,513.475323978682,-3962.5090106531648,4721.061040350779,15484.993224477006,1822.7670648928693,1576.1167491847389,505.95736589606685,-3896.1029369139937,4587.5510322953605,15644.689565927403,1828.274097777844,1573.342835768085,515.1690725089742,-3814.567531391174,4769.898217732252,15754.714747858341,1838.7974664514359,1544.916983565028,500.9675173954335,-3724.3587508628516,4780.738178273418,15782.66153678832,1824.7309824285953,1556.9899690150216,514.4104512138633,-3889.0989441164384,4779.342743694307,15679.969036749593,1849.6795038175119,1560.1223993297967,532.2888435927536
-3792.0,4700.0,15532.0,1837.0,1699.0,464.0,-3663.3776876451334,4772.626018256748,15424.41007897859,1840.288040795953,1702.6014488080623,486.58021879633003,-3739.001428058135,4625.868542997335,15435.340143519434,1837.9183143596722,1690.2398185900888,479.88907222187277,-3676.7250303851492,4636.345113900716,15576.434103894531,1810.1672024269687,1707.2682877206332,455.50664236308324,-3699.651518416147,4839.415084618709,15604.392386523625,1823.6355432880036,1692.2169499292902,474.57979242437483,-3626.928227805449,4756.9352875952245,15528.970892069685,1832.0155262385201,1708.581721376508,472.7269425192409,-3814.836834394904,4696.278513245014,15463.438300332433,1852.0032625019217,1691.4540827630613,450.64725614740115,-3823.4919947252733,4708.295062838508,15511.972006991042,1819.4929727834667,1696.0203508990933,455.8933064242301,-3921.434033104802,4949.193342923402,15517.533506795118,1839.7072542252063,1704.150910591275,443.98873043575577,-3513.8855720717606,4812.640880941774,15584.360491994563,1864.593461598224,1691.4595751850293,482.0401706289302,-3747.243837929897,4786.936838553049,15598.414412712606,1838.1045135237366,1707.229601341705,470.29116773390933,-3547.994645573893,4510.155355486649,15594.916306964527,1830.6204493485645,1700.4819479063897,468.25359007109637
-3824.0,4668.0,15608.0,1671.0,1882.0,249.0,-3971.7739171097414,4776.758426351609,15678.283025256447,1674.8823523604121,1878.592125388048,254.61605316678794,-3714.331589030504,4733.890662239269,15615.060185477594,1667.281118967174,1884.934266278813,246.98999979271815,-3875.7606708023204,4920.325970097672,15715.77366062272,1669.5072298113714,1876.9972253934777,266.4534981954374,-3768.4652728313604,4521.198652444862,15812.707881367885,1675.8111820120807,1887.918171267402,264.67690955980936,-3744.1424596670013,4585.9521664907525,15672.491052601603,1684.3312763647516,1880.1408222286743,252.3346426014645,-3973.449446982881,4771.069811787304,15538.862584617787,1670.5203294158468,1876.8611570434914,247.67928781733812,-3905.4134561510355,4758.738138231877,15415.936914587846,1687.922810345717,1881.9201409412503,228.53972670511362,-3844.077593898018,4850.051153935725,15694.356895311143,1679.401966770804,1875.4838380032718,252.20616606997402,-3835.3587406280485,4662.323769534762,15604.23759899085,1668.234382520263,1873.602538412497,261.3830595768492,-3819.945168254941,4847.925803413445,15657.822659112586,1653.9586548354441,1884.3317097858746,241.38511880127376,-3798.497630459814,4713.238093012125,15728.962118793359,1675.3829874866392,1880.5477599103353,251.53441182925002
