IMU1_AccX,IMU1_AccY,IMU1_AccZ,IMU1_GyroX,IMU1_GyroY,IMU1_GyroZ,IMU2_AccX,IMU2_AccY,IMU2_AccZ,IMU2_GyroX,IMU2_GyroY,IMU2_GyroZ,IMU3_AccX,IMU3_AccY,IMU3_AccZ,IMU3_GyroX,IMU3_GyroY,IMU3_GyroZ,IMU4_AccX,IMU4_AccY,IMU4_AccZ,IMU4_GyroX,IMU4_GyroY,IMU4_GyroZ,IMU5_AccX,IMU5_AccY,IMU5_AccZ,IMU5_GyroX,IMU5_GyroY,IMU5_GyroZ,IMU6_AccX,IMU6_AccY,IMU6_AccZ,IMU6_GyroX,IMU6_GyroY,IMU6_GyroZ,IMU7_AccX,IMU7_AccY,IMU7_AccZ,IMU7_GyroX,IMU7_GyroY,IMU7_GyroZ,IMU8_AccX,IMU8_AccY,IMU8_AccZ,IMU8_GyroX,IMU8_GyroY,IMU8_GyroZ,IMU9_AccX,IMU9_AccY,IMU9_AccZ,IMU9_GyroX,IMU9_GyroY,IMU9_GyroZ,IMU10_AccX,IMU10_AccY,IMU10_AccZ,IMU10_GyroX,IMU10_GyroY,IMU10_GyroZ,IMU11_AccX,IMU11_AccY,IMU11_AccZ,IMU11_GyroX,IMU11_GyroY,IMU11_GyroZ,IMU12_AccX,IMU12_AccY,IMU12_AccZ,IMU12_GyroX,IMU12_GyroY,IMU12_GyroZ
2176.0,2152.0,16648.0,1740.0,1361.0,293.0,1978.6980621352643,2304.4993502404936,16604.595693512914,1750.322551396946,1355.8448303713897,294.70482557563815,2288.262752596436,2073.7714529646864,16622.577598184394,1738.2401310793462,1362.3712002234145,293.0207147779164,2210.028309444257,1919.162502259478,16685.212550828197,1736.816056878006,1368.1884827725528,309.52835181037324,1823.0730696021303,2310.709926047605,16777.651473330036,1743.0824445365306,1386.3640887848637,302.7955847920476,2138.190879247018,2238.2594074202093,16670.45473476414,1748.809233359938,1361.3688637955163,292.9177425084304,2186.11552636021,2032.320506523569,16558.59826013377,1731.1931150278554,1356.4032152403847,278.26094814090766,2166.511767212824,2298.6089820911684,16591.318173930544,1723.8454295410288,1329.600842294186,285.21351661505685,2331.8762875302336,2310.1651738891223,16580.58148449678,1728.4436642648004,1345.4646484355249,284.9961261244177,2162.897844189914,1981.235304897031,16565.537518053872,1748.0125391411666,1355.6454003083663,291.77799075791677,2207.8552141750342,2230.661742749404,16624.52407608958,1726.8336620772789,1347.1950867202477,289.8897324931476,2182.9473528551034,2245.6856545702362,16551.77050168439,1760.599443375836,1368.8530073389704,296.9995213598928
2228.0,2176.0,16644.0,1756.0,1352.0,292.0,2380.9604428152843,2097.114258438651,16510.55252313097,1766.4925991654866,1355.7723006281906,274.6273154699347,2354.0121064803548,2190.5191665212365,16695.712923379433,1768.3685060866003,1336.2330439041934,286.24259421157956,2168.127613744578,2216.929745017218,16956.054636030716,1763.6484822831676,1348.1467713591994,296.741947714593,2171.8168388708013,2218.296949689663,16648.922689335985,1761.3390573544136,1366.948155918957,306.4512016810155,2142.1599185377613,2245.133884860013,16785.98530922501,1740.76091501113,1342.2993900756417,308.6133750406651,2171.7091403084037,2096.7071352803378,16706.0657403335,1752.3187361039447,1357.3634649734956,294.3566570885046,2193.138328838526,2127.052942274416,16739.113582949103,1759.4775909025475,1341.8116357150927,274.73010765396,2198.8996854130246,2162.890197577608,16649.5810010806,1743.9312444977606,1341.9211486188633,301.1269476279915,2145.381987071008,2222.7435484797047,16705.226768035554,1750.0213158497254,1348.9285449944982,283.43630718311573,2201.3221475132555,2144.3286493153164,16523.084435940484,1771.2541706777108,1348.328609813586,290.2100181678433,2291.257390647975,2142.981648178227,16718.292302066962,1760.4490397182515,1354.7584904920818,286.9565037451347
2216.0,2200.0,16560.0,1815.0,1348.0,281.0,2090.1001854973856,2114.6323736524946,16562.882427870492,1816.6484129489577,1340.002118421676,278.4433086840365,2149.5437043792467,2323.1869132009356,16573.648099315797,1807.6350854329519,1356.438460243382,276.9198008680759,2231.1024662846594,2186.910320081631,16667.04602595774,1812.6019517544446,1346.318930526822,290.0198420071087,2301.8047240722444,2141.852590884022,16759.203670584964,1825.7877278827384,1345.6461841041566,287.10329827382316,1957.9123363738915,1951.8033221564563,16516.976174489708,1808.5783999213415,1344.1619926975475,280.7354239101969,2445.5828777709507,2086.8926122519256,16484.55576471152,1808.3604656211091,1359.122706646617,303.6580362567967,2283.9416910975524,2108.441772224194,16701.31006509661,1818.336282503021,1322.219177699618,275.61200077001115,2264.4089376210477,2362.9280529578173,16607.495170169965,1828.5626541813779,1355.8829645532996,277.5308660893631,2198.673674384372,2402.027525972064,16470.804264983886,1825.6296796401055,1342.9866048137785,256.26140886844235,2248.32408239865,2105.861230278492,16637.541340555093,1811.451876477461,1338.6344606276602,274.44251156021414,2236.8807653907297,2096.798653582234,16580.460766666314,1817.3530429911675,1338.2497415611479,295.7486566996963
2208.0,2248.0,16612.0,1711.0,1341.0,283.0,2218.141347290599,2387.319807600012,16756.96648748842,1705.9896362116435,1345.9446256006415,271.74271266275105,2248.8770372167414,2327.4287161154834,16604.428326535348,1724.1676119445224,1345.6543728513932,287.62532727027605,2220.475882483785,2124.678139425111,16477.8033744692,1723.855182191832,1344.276191178827,278.3506583991412,2162.844220378316,2125.9251389184915,16698.025621661633,1706.3762804259782,1341.8371138887542,296.4481309214669,2014.1894447484779,2254.913445845121,16534.924582613334,1695.1964730206798,1356.044367133975,261.6269727377621,2357.6815611483826,2156.6503854778566,16754.77937602768,1735.1044134462109,1320.9639695924448,277.84835256165934,2200.273495612391,2274.3400993185696,16663.29121770655,1710.1923100133156,1336.3006871278224,271.4999014703589,2134.820934721959,2405.477779158091,16815.368163763374,1711.4301024775875,1353.7450951800627,299.0358433620242,2215.7845153418393,2194.0002849182797,16471.637791703262,1704.7318668617693,1341.4280854440872,283.40383966294905,2225.901092432368,2198.8078426867655,16472.60582484829,1712.2093709306864,1334.9967543275015,287.12375975342087,2148.7656480948426,2197.997643190461,16701.428316662124,1708.1458208021934,1333.1652517451435,287.00272524721646
2236.0,2172.0,16656.0,1739.0,1366.0,313.0,2139.0504920597623,2148.5888580698856,16719.301862748227,1738.774184648545,1379.5463138847538,313.5629131374138,2058.207460927082,2002.1227988661385,16601.935182457255,1750.8759785145048,1360.100132787107,311.31395934510675,2167.329455994938,2333.779989556515,16615.022759098178,1752.0472561570928,1355.803261419873,311.66653512729323,2227.798323703445,2030.5737511564357,16878.276291277376,1716.6809998216424,1352.502889245151,302.43111900021796,2174.000667217949,2211.4513529841397,16424.710308294292,1748.5658914286514,1349.4210021682686,307.21068259969945,2188.0659205721163,2127.9097001873197,16653.232578925235,1755.53768273255,1369.6816312218518,323.5280184494215,2183.7154808767436,2070.0529947273644,16688.479778241664,1729.8434619965785,1349.9068738833403,316.6700581193452,1892.330930139517,2355.3795501930276,16717.809769515206,1735.2766530882516,1366.5795412105083,322.16876087865427,2356.427165812236,2089.877140350539,16495.155308780042,1736.1503613444202,1358.5979198246177,315.90923863707786,2282.0109798853155,2003.0259327487036,16616.16523242768,1734.027509666412,1363.4595903697627,320.31729164544635,2036.4220602948167,2176.328356895326,16802.572784584903,1756.847947055053,1384.754956427229,303.9666227847586
2264.0,2156.0,16728.0,1755.0,1378.0,274.0,2396.844602247537,2306.1886736984707,16717.641606040208,1750.448767214979,1373.4808259430438,282.2641874483732,2272.2557659324243,2039.4616538470443,16720.99129441326,1760.5541089165936,1364.0659447160824,272.50350146005115,2329.0669044693987,2227.7866666094774,16911.428795422282,1744.0601176586235,1383.5403439716608,266.47160799664044,2183.9716569960024,2243.0462543023955,16582.15254480479,1752.7052618692617,1376.2106314804887,267.9079536393908,2153.961985664348,2235.040922792687,16655.40084651986,1749.9862988567083,1373.87827120218,272.0924997155591,2350.112350954697,2132.2584961162274,16845.52444287316,1760.7871094312773,1362.629837062719,276.16417964911403,2273.3572803562333,2248.790091679884,16812.90068168481,1743.6751158632626,1384.1980761515229,279.7690312400265,2242.5274968953017,2324.75293842706,16781.742995689623,1777.991219007896,1395.8881285818056,274.6687297751259,2377.744860046455,2085.6074673913577,16693.81227265632,1756.9520425854216,1383.4565678245124,278.802489725594,2234.5403233300995,2131.8865887254733,16932.17158148457,1752.579017302446,1360.9258584886586,265.49325369480397,2208.60854997581,2312.6781159826974,16764.744552961794,1751.732949952033,1383.8290577919074,274.11433950848334
2208.0,2148.0,16600.0,1739.0,1356.0,284.0,2283.3919924254355,2208.250786114868,16582.762918674984,1735.1347966681876,1343.4352350748375,290.2789579045456,2264.9327109062415,2181.713666574678,16588.80209040314,1756.1202662913488,1365.857931805401,274.8959744302061,2095.850285203189,1923.455243983364,16611.549403120836,1741.208487654436,1359.3122206658663,279.1169732820252,2367.0342706320284,2185.448513191311,16439.09046251384,1745.394756811226,1353.6883440167621,286.1313186489434,2250.184690557499,2337.520644248499,16600.157364767616,1732.732585712015,1373.3349726369086,280.04651227837076,2165.854343494662,2114.829858302758,16413.653027063097,1739.2562201501314,1360.5680639198092,286.8894247032718,2149.553148096119,2313.0037131418558,16681.258738239845,1730.7967184271529,1354.178707193811,296.9069933115747,2153.511733851139,2138.743699044631,16614.158636531978,1740.8191579268057,1350.4216290767931,278.7884783339299,2022.0241641968582,2090.6881195916235,16462.202706785672,1744.4272382564002,1342.5336841614276,286.5918126884234,2359.2613610130484,2176.9145723839893,16554.27899679425,1747.1300330394185,1355.846825673477,285.31911285506845,2156.3661572209276,2064.206156383487,16534.276020248548,1757.778519471108,1339.1320775330184,286.59698065389944
2252.0,2092.0,16616.0,1731.0,1365.0,295.0,2259.563975523777,2081.783488255718,16665.192701998818,1729.1940113241171,1357.0107642404637,295.82770109673845,2150.0054220692064,2015.8332069774692,16644.13498018403,1713.8036752208795,1372.3794720199671,323.1155725003947,2012.1191372815356,2113.1774550858468,16720.512506701627,1722.529673689367,1351.8748097253003,301.4515100650059,2227.4697167457925,2040.0243332522095,16554.750917831912,1747.4555231682532,1354.2717290504454,291.180900838475,2154.3954008035166,2076.699915381262,16692.34594060445,1736.9133290594361,1377.6000976567507,291.83317676051877,2375.447700452209,1974.0881480112985,16611.844778607436,1719.190476449477,1369.1634255371173,311.7395635452651,2277.712433967924,2113.0695272165444,16729.611175837872,1733.8819091795262,1369.2593662119368,307.2737235223691,2136.3476348006184,1923.1632547118616,16463.645444513437,1738.2620167774498,1348.0993927448358,296.7079772448421,2311.423234935298,2092.683524320613,16774.170604817486,1740.9299606493105,1368.6461091477443,294.9509825229381,2377.594925462511,2081.5978938466887,16604.037678005316,1717.7420361689294,1373.4265030447655,291.9845886226962,2054.408299713821,2256.834947295262,16459.743180121404,1719.5901974385536,1352.377236623258,292.4421558484547
2204.0,2220.0,16632.0,1739.0,1396.0,296.0,2261.518498403259,2225.2816985084564,16424.707368658717,1740.0852149368636,1400.9681998689475,277.3775292392456,2202.16157002806,2287.288984314455,16512.38651899237,1726.8233530322868,1381.0641486553343,295.1844366729803,2150.3564251796834,2203.4938457383805,16686.450313897112,1730.654458656944,1415.230948796861,265.88964569614774,2200.092271289908,2213.7165866704154,16648.072870926262,1743.5235039444594,1402.95140736747,301.2316595065871,2450.937360679395,2009.8834455622045,16685.300692365738,1726.614798395463,1398.7570329172609,287.53378475415445,2287.389868070817,2197.7173726972783,16627.91333876774,1745.4123179538556,1386.057744899262,308.02888335450007,2164.081242538398,2079.336675226996,16699.32189314077,1743.6104694237138,1380.1072499380439,305.7895614156892,2245.0232127915137,2152.03738989155,16495.78912053854,1723.1760737112306,1378.9470308790114,278.58748066843106,2221.6404899669333,2279.8290823978155,16537.246677850617,1736.4644836940697,1394.3633021333944,290.63923072476854,2361.5315343819075,2182.635876511228,16642.191682159988,1739.3715407948453,1400.1441475410395,298.4493749885236,1970.8933824901774,2253.6098642094576,16543.322468380822,1740.6250410906978,1395.9810027902727,311.18000561261397
2212.0,2184.0,16576.0,1717.0,1358.0,254.0,2217.587776545542,2191.515414195811,16703.018587869457,1721.572686049938,1357.5503065433202,264.2260499290398,2234.7202876510173,2451.6450506042243,16418.569453537355,1726.7243308308834,1347.1644407579934,255.59242907131372,2260.8259722126368,2253.248718862568,16390.3883972464,1724.2614816553232,1347.8619495714258,253.05602426298256,2264.553232210594,2280.6048402802503,16593.84843087151,1701.9028914662215,1369.492005202212,259.91283490280983,2252.6234306762526,2241.349992392108,16451.48272340566,1719.327742588108,1368.1895755334,259.3180456272332,2242.1634536581983,1958.2119894198433,16764.09953789761,1723.5591634521647,1356.484919824036,249.55613274298997,2136.0456834842935,2097.2788344880955,16647.82182220996,1730.2797616071841,1363.7356564030176,241.8633222893833,1993.6394297818933,2125.080153546876,16794.380989637768,1724.9222120149939,1363.4722268879732,248.98828368416213,2144.820004024269,2219.932219872807,16654.282146071553,1714.3699377041773,1351.3547452000032,251.8843570065327,2106.84710894445,2107.751478081989,16609.55047969163,1717.9952794797648,1375.2314015694958,250.19513573163533,2057.9227372540167,2063.1700681703346,16650.469460103104,1702.5184707566093,1372.5156197147378,244.2613887579445
2244.0,2272.0,16548.0,1785.0,1371.0,311.0,2301.590215878606,2350.1436701400758,16446.326892615292,1780.1368061032158,1372.3040176586128,294.5059997326647,2241.9250965931215,2278.3751383996014,16607.40968671394,1772.6107289471963,1371.0553967719,316.79669927304735,2321.363306650497,2272.5091367039954,16419.011736935914,1768.825808650095,1369.6195006673395,309.6454319410465,2218.076715400149,2282.230679159499,16364.65809335626,1794.6596615797175,1364.0726778539413,308.00704990814774,2216.6426791694794,2430.5026659796013,16719.399346270606,1778.9713446716016,1372.6996487188812,293.881321475783,2295.4350771541335,2232.4281971503947,16449.731576588558,1785.8016904021554,1344.6413373056564,305.25992935186207,2202.314511973124,2057.466793713871,16377.542823982118,1789.4660885013852,1364.5746993064695,303.8298205104966,2251.3424692780645,2223.767312287325,16697.07455541551,1789.4788569671693,1368.5231865090466,269.70977790436604,2269.9545869205326,2242.5865703262,16567.769784567416,1796.1220985212717,1384.5622617939973,304.1879811546529,2263.935372745631,2283.9816080842284,16697.33471445687,1791.4142331225423,1367.4458899592403,313.68312156425173,2206.5897785815655,2348.8004334789944,16329.831589810941,1795.0952467674492,1363.4979576122587,311.5609176909584
2276.0,2128.0,16676.0,1751.0,1363.0,267.0,2214.7064505201315,2168.9645586871934,16580.4455472485,1761.5534145352806,1360.6498072459665,273.0162116652262,2424.302681130625,2149.991889396029,16704.929171991473,1729.9435328716593,1364.1727774435283,265.99782927793734,2200.2713060228193,2046.4066375237342,16511.352860541072,1735.7464109564783,1358.697831319388,296.3246935884015,2403.820986476772,2055.6357088465033,16766.35520835234,1771.5163397769281,1382.6459882740762,276.54994370612246,2443.7792668453026,1902.141632742823,16611.394452882872,1746.4317788442656,1360.9519607032082,261.8497328514533,2216.808038756491,2284.1084018268666,16719.706073312464,1750.016443654014,1354.9548143026866,274.84672272845256,2516.3336257355736,2129.300942823879,16794.00375078276,1767.1190011898982,1356.6234957061224,261.50045688584464,2196.0014295778747,2112.361349485576,16677.194880403487,1760.5712666874797,1361.2469523236257,264.89570202617756,2344.685257142786,2167.851306538886,16758.38210657721,1752.012475992304,1364.625922809509,263.09775792682507,2367.9723233502223,2053.6722762909526,16811.353926861822,1740.3218579633938,1346.4513605480308,272.5061728132658,2262.205133798675,2016.5527850957217,16652.568587704864,1765.4965990482453,1344.9980979454642,246.88848539454807
2224.0,2184.0,16672.0,1756.0,1356.0,288.0,2053.6730290968494,2193.886581921039,16764.01526403911,1775.8692664579507,1358.7122428293148,291.37361833313696,2428.83388881217,2213.130653562124,16671.714698178053,1757.695568031673,1366.3135354538651,278.01947868092816,2143.9185929343103,2108.2072473221606,16705.837309145416,1762.471637953499,1348.3113920139544,284.69460915525923,2244.0014209776227,2213.6196968044433,16731.11386307517,1750.526142591763,1360.1608064052887,278.6358599776539,2246.5108224080814,2141.6952813666358,16682.502203820095,1731.2580546507097,1356.649672170858,300.25069268156386,2069.8326671308682,2186.3373247652808,16703.302644163614,1747.3900537926913,1342.8757943774444,277.73485131000183,2239.898646507241,2238.8507138106725,16693.51296041737,1753.2193404859597,1344.9196742953068,286.6585226206491,2199.5480152064465,2102.849996317371,16580.07264328286,1758.9049651714665,1348.1591602012086,295.58234794594233,2069.5891588639693,2171.7756598698675,16570.579899045235,1762.7789837501937,1342.925545231516,289.83191149328275,2181.754437567451,2129.9339080047885,16760.218165345417,1746.467250989952,1356.7447479688292,272.02056937603834,2235.919652881248,2228.2607641018312,16599.781511599216,1754.8712601318177,1362.4129518753234,283.62111146389225
2180.0,2148.0,16608.0,1732.0,1355.0,302.0,2213.1051405976064,2046.9812539270617,16473.659513538212,1755.36949817212,1350.5175335379463,304.82448191934446,2290.9957768876407,2065.43728353499,16504.760715392633,1724.7100510672385,1352.4661005327268,296.5766841995282,2114.394457451141,2323.679209578568,16545.635503134792,1731.6190373966017,1350.0059660697846,306.32237918062816,2179.0101050841763,2272.3264418620824,16638.03845506122,1729.13458436443,1365.311224850053,301.04810122631045,2247.9350055757836,2314.712560089463,16722.866952136832,1742.0018860639498,1342.1811420817694,305.01714871530965,2281.981537155995,2098.7505624266687,16643.367292384,1740.9866052622722,1341.8691312664382,287.9111249749082,2283.593730433471,2113.830173937411,16790.57010468858,1752.331982801662,1346.3348990482455,302.72869831601787,2199.754811172647,2240.0716741531223,16665.317507013457,1724.8193344967315,1362.6563718550726,284.1802991533426,2088.950157355842,2298.8858821892845,16477.93284339167,1737.8677648651449,1346.832050926478,318.41116196873395,2283.756178665564,2272.7098428674085,16503.549740325532,1739.0707680695396,1334.9393934891943,302.26356221390927,2307.0231197597204,2180.861943738902,16545.891904817137,1747.420707511037,1355.837514489022,296.2829154879504
2228.0,2180.0,16628.0,1754.0,1325.0,268.0,2106.137053147094,2302.685648452794,16328.693012938076,1763.1002123621993,1335.358626009991,267.4463219608366,2216.7389474716433,2336.208422993041,16589.711229703455,1756.3605641726404,1330.3481983469105,287.9485647656575,2179.415687385782,2326.315125589045,16854.98961425414,1748.2965271606943,1319.7764016186752,264.03374656038784,2075.97914294111,2226.820766087572,16486.38303555461,1758.9979070081338,1323.2612851038214,264.74643446731886,2261.701513595692,2274.759820848617,16584.209115480866,1761.1630983416808,1337.9460329957212,272.6210975019861,2210.523532197933,2154.3142005501713,16736.876585806425,1770.6084664509922,1300.2005141271095,271.63653421907327,2214.2910044257374,2219.526763104681,16546.334296721816,1736.1177057959683,1299.9375160407717,268.85357314826786,2255.6905561729936,2464.5680473221532,16564.89151503384,1763.9272026723665,1326.306738498228,279.69405399454496,2240.2458435904173,2255.0416210384465,16512.22672672648,1754.7095756266735,1324.650647141215,272.65829318548856,2129.6228639448364,2245.664480442195,16647.903488057167,1765.6360437073206,1318.7520474208598,256.9423288636666,2136.7156500028236,2342.4073391356483,16540.487914797442,1750.418661507205,1323.4210974832583,267.60551232483243
2244.0,2228.0,16640.0,1773.0,1332.0,293.0,2249.7211023843693,2307.869012666229,16685.548641481208,1762.0068582866497,1321.6772627348043,298.4740485080131,2374.2146330851565,2335.812330269089,16629.354031719136,1776.7834400328532,1329.1453284748347,284.34534144682794,2255.919709170858,2289.078339789023,16671.00156314828,1778.2660498897953,1343.1930737935245,303.09245199932576,2284.875340885737,1955.1290250357179,16633.335438769627,1779.874910779518,1317.105127739442,275.82848953693633,2520.1619307292854,2184.8270108746956,16597.5249742811,1789.6707355060373,1331.1477665110324,298.4852752633698,2204.7282012706664,2251.8441514721058,16925.582136168458,1750.683359067055,1340.5586621317736,296.10590879158747,2290.5397177287555,2307.620258934348,16697.932477293423,1767.6894926976804,1334.672507625485,303.30077495974,2210.391672897405,2325.886350599743,16561.69643627848,1799.2983607090032,1336.6650408538287,304.4724894348098,2221.3617960526376,2359.0335658430845,16763.321198646106,1764.7235730842262,1339.912022490829,274.38221311093474,2492.618178249627,2297.708056483391,16648.732361592938,1779.2828372595677,1328.9623770422077,308.26158399885566,2152.2734940296696,2307.8284680377674,16705.41960794626,1775.2198647486937,1350.5895481844273,299.1321227259689
2184.0,2196.0,16604.0,1785.0,1300.0,314.0,2236.2062644388297,2311.535306603042,16586.92637534704,1771.8414467982052,1295.7942551951523,305.8534830789619,2099.8998688080924,2344.455696754877,16620.587277807383,1770.071509608019,1311.3152824715435,314.71536141441317,2140.1829706368485,2186.876214731651,16730.49469077562,1776.5098058962321,1299.4569536039526,310.8118358235886,2137.148039098977,2180.203045893556,16613.893780602844,1779.169654352253,1304.6448019378365,321.0986784331232,2230.584545183436,2104.3172159273736,16617.314470482957,1776.9321155062923,1309.9996136768066,341.31857150495574,1931.9279324081904,2347.609375613469,16702.0001341845,1772.029888212994,1298.8031328650497,297.9885379713825,2155.5750761182944,2131.6884900343393,16650.219042871413,1797.8173936889762,1308.4672555944082,316.889022231771,2319.379021336309,2050.0613423688496,16551.167258685877,1785.7758650996007,1310.3876958255091,319.0735686958037,1958.5388859436375,2267.1600359891054,16565.72040677901,1792.2036320961263,1309.9987352738574,325.2406769267313,2414.4566267758664,2097.524587751559,16694.767264417183,1772.1283475774405,1284.2078296109385,319.31982479543933,2184.32437269423,2227.4314057675115,16660.371822126646,1763.1134497544003,1290.0927533003712,305.22595395628935
2240.0,2164.0,16640.0,1754.0,1368.0,273.0,2206.614466569798,2159.219362369374,16515.356491896644,1751.2258001748996,1377.5667090275704,270.40402216212345,2224.548735467794,1927.9917870703207,16535.34939404835,1771.3716531164564,1386.163538943078,284.9789594110496,2238.2977736049324,2281.0646952097522,16749.51250604875,1740.9336097250816,1374.490076359424,261.30644495766353,2358.7542509517657,2127.6544873200232,16549.92889835698,1747.1438171668017,1376.3632498217162,288.86027782222016,2280.780169224669,2160.383117859726,16509.79254421123,1751.0958777178005,1352.1156685240824,293.73816773048367,2269.70885680367,2136.0024942554696,16697.34170235629,1769.724754645068,1369.5737719411322,274.8048311636578,2260.7246705497637,2144.0532315460036,16744.61472402543,1760.0482881061114,1363.1454678631349,273.42786777949493,2244.462622571956,2091.1844068960636,16477.97674971897,1734.5180094254038,1368.1612239250576,254.07620102685553,2239.8171230395633,2087.539355064203,16629.95660983117,1758.883928418928,1343.8047165576095,279.59101807706224,2201.0665887765576,2253.6973004106158,16648.403675825102,1751.8270992525606,1363.777868890525,260.27596409892755,2131.3992427176604,2068.725678616169,16726.76895882777,1731.0787434469134,1371.8828646197808,278.63008903272356
2196.0,2116.0,16600.0,1759.0,1320.0,287.0,2050.2697671019155,2159.1510547520384,16676.229108048334,1749.2649697619424,1313.7762703634576,292.85585685562825,2383.6722318943293,2226.926673680947,16407.20028089076,1786.8856026973956,1325.6944180690039,305.09208574449815,2210.506607604687,2073.6255944410223,16702.525363873134,1748.7111100713614,1321.825490811708,282.50165001539466,2165.9710935914068,2007.1980922073124,16459.309554056686,1758.5669298924024,1308.7695838440693,292.631452710914,2132.3385917174965,2046.7575647860792,16653.825822834184,1757.4488933848704,1323.4486382118694,277.3216741945997,2346.6518935758522,2222.61972542621,16661.986085052707,1754.5566545310278,1327.189797452581,290.8096377171914,2271.942947063156,2223.137238218968,16643.822179672905,1763.1599768760639,1327.8034115099294,287.12897285961645,2173.9062525074773,2093.219102132303,16662.082239760723,1759.117920468797,1309.0709807505189,283.960141901523,2216.1671896069865,2110.691476610807,16825.83607768322,1744.617604981804,1311.870549183528,286.6371065921248,2120.174377596499,2162.022412683771,16659.165575909206,1761.865937481353,1301.6069215350733,294.4449784345255,2055.6333608841114,2096.577852523781,16718.20962299547,1772.9773033870672,1292.8862667029582,294.7667411739639
2176.0,2140.0,16632.0,1734.0,1341.0,287.0,2170.7096211428966,2213.715153117075,16665.63198509019,1716.6013951402251,1332.0681170521198,297.3360291722195,2217.489186820992,2037.8352780902467,16752.31001032894,1725.1466723102549,1353.658711586025,278.5514405028344,2319.835901607152,2106.6839627481922,16515.58070531564,1730.8762657494253,1342.9555531011995,287.81933019576877,2152.0923198083765,2098.17192025566,16728.450976267617,1726.7017575181235,1343.0131089755328,293.09361774368074,2026.8950533000784,2084.553223303859,16749.938912753467,1737.6876600224734,1365.945743481947,272.80626271942583,2152.7393665976383,2209.024980437607,16726.557346379417,1741.8257593289138,1344.3720522043159,283.3949169267597,2271.66023266169,2102.646331893768,16675.88738219157,1721.7189587835126,1353.5666917469398,310.63472341836075,2092.9982459337766,2147.387240890595,16603.531721369418,1742.567450459745,1337.8033630847378,274.28972731450733,2104.6010610345993,2151.2418761312783,16656.78150142542,1735.319903795374,1343.3656873860123,296.14100429483824,2259.8966740073415,2234.1628181182555,16482.229378011507,1747.7743999780275,1343.2566540291066,283.92923520511704,2315.652680404101,2009.2095810700425,16665.63162247781,1757.7678808083442,1333.7821893084354,284.4930299570808
2304.0,2184.0,16556.0,1726.0,1382.0,288.0,2338.841255086326,2210.1175271386032,16475.907818304666,1723.4811059241467,1377.570167786182,291.1625942652027,2379.3408448872156,1924.2341445861787,16536.983650328315,1704.4776198023221,1385.8154509042893,302.93204010234575,2348.556301906073,2384.0941298407724,16624.52100546684,1710.317576474669,1395.0703184270403,280.43389527304913,2284.9085988492347,2179.1780856397345,16360.006506923395,1708.435724747009,1391.8184352625522,290.6635238575381,2243.7923712820852,2040.2657636157044,16584.416480315693,1745.4283777229734,1370.9431952280734,282.8349602503349,2301.6114127381456,2040.1189381755376,16618.084805628903,1725.69211165605,1379.4518021174392,278.030315931136,2313.8233315673842,2291.423182486329,16556.847966621805,1717.6682244997346,1384.3450993029533,287.66655516593136,2250.2736403468084,2191.432344721565,16474.188074691458,1713.800099761617,1382.206475480656,270.4749470302767,2238.8209571763714,2268.3199983133404,16351.048112288332,1734.8489449893414,1388.8624522636885,298.3406752304282,2412.5605104538245,2183.0480054224377,16580.728329100282,1736.5171532989198,1391.607909017358,261.0901331811619,2246.8946791364037,1973.849898253044,16463.580924754246,1731.0712339908237,1388.2789724734666,270.6043641326849
2152.0,2144.0,16612.0,1745.0,1371.0,247.0,2157.505046212153,2189.150975922464,16681.268229882648,1744.5444771058942,1362.8687185152173,262.2265379878911,2226.9274271691165,2264.677651193635,16496.474290517657,1738.2798931986738,1352.2149862507554,267.8744597312071,2121.297671143681,2185.875580823731,16559.96948744302,1760.6102606073496,1375.8474227830714,270.1602265077918,2065.9579679852513,1963.3653252626023,16508.69734852099,1754.731765741953,1369.2573124465164,252.12349106465348,2255.297838912048,2130.1302804730126,16605.78381671548,1735.1067416809096,1371.6008138067305,247.63417612646364,2178.8552012200566,2027.8415096136603,16612.136501590154,1730.698251721844,1371.173424061843,245.71465213954158,2252.832050805017,2317.5319420004876,16577.546941096025,1754.4302989117987,1373.834463522446,255.59711931845243,2032.182126998951,2104.193168081172,16641.919460627345,1733.1922091970966,1373.0639430629442,233.5388337298443,2196.558681561601,2380.425523576854,16696.539028200452,1736.3357130256484,1381.7357402301393,244.36323394647815,2078.779530720236,2144.902518978484,16489.9060764417,1732.0584110650682,1363.3774277074233,242.80178611454076,2334.855621326875,2181.2575118950294,16663.72217569923,1746.4140632737558,1375.4438866413443,254.43754646164572
2188.0,2180.0,16596.0,1786.0,1348.0,278.0,2328.4610363408406,2261.486009207446,16581.408193328483,1778.1184013827444,1357.9226562601161,262.8224007080438,2331.208324314151,2302.410261354293,16499.989645975555,1782.0860451071555,1355.3797521852816,283.342720718747,2268.6877438579254,2315.2435985305065,16409.112691398106,1772.8739667247357,1359.6198004564712,292.4859790985321,2201.733277624261,2043.0438161035909,16486.515423182904,1795.1072549752873,1349.1130942108648,290.99141623642794,2195.8817443833623,2068.3019865463643,16762.365824447923,1804.5104800820488,1359.9245830091634,274.99316847339645,2071.529136314204,2172.7931770335103,16538.784435947033,1773.9867901371933,1358.8344631115606,274.66009916917795,2197.838791401317,2166.9460654291797,16792.169966185607,1788.973662615145,1345.8216416519185,284.2494099868259,2022.0539388945247,2147.3771471815276,16567.26254082525,1795.3613682755147,1363.9937612982412,307.40253111656284,2314.3746533472586,2105.239994318171,16543.57880734904,1784.479739727715,1324.7495839954672,288.70766859151234,2151.90452393625,2342.1930784547203,16607.03584281096,1778.4522461703386,1342.7015233746883,265.8562855133645,2176.219959637036,2286.573317835875,16616.762991946194,1780.5287647690038,1346.2755572565118,283.5913179303613
2224.0,2116.0,16568.0,1752.0,1358.0,293.0,2104.896217694723,2035.3049244614497,16424.142216896016,1766.2132453187762,1361.3929829040164,301.0781280109447,2228.9376427555812,1911.5733786302635,16655.370265059682,1759.9148040944508,1354.7006320712153,279.33889300225457,2317.5651999611973,2272.5073324285577,16630.651223935485,1763.9179474860134,1364.091978617201,287.7645614453816,2130.7598085820314,2112.379375918494,16732.376293837577,1747.1317312253368,1356.7490497065342,307.71079232006684,2440.812702416759,2036.3908889922923,16554.24940316997,1766.9478030898454,1343.8916963528425,276.1241562685045,2115.3092629250577,2233.477221440053,16374.506365575673,1750.0746105214605,1357.366636901976,301.8779804147431,2144.526967442056,2229.638704834201,16477.767615969515,1758.4880802612397,1344.02532106637,291.9993594072465,2296.7433882370083,2213.7523828631024,16387.7312626239,1763.9311700375365,1359.5063200393151,291.1014263962365,2078.440711676123,2108.339949046376,16594.577983807063,1754.6054945979013,1346.7595061683771,299.95085079049863,2263.271677125473,2170.2208330568706,16517.208472621434,1749.1422210314595,1345.8013009119873,324.0351235667672,2225.0620213800025,2166.9355909444794,16513.597982659845,1744.1908549622406,1356.3015352474133,296.59185754902416
2200.0,2236.0,16600.0,1723.0,1371.0,296.0,2161.425396350423,2140.8334782887887,16543.137604089574,1729.0789053130145,1381.756711661004,291.17381524952725,2212.4213764388232,2354.644273576778,16505.440828587358,1707.790947574693,1369.7364455776715,300.1419660063493,2181.812804925988,2155.799446629063,16530.616982904598,1723.539074365541,1368.6013601887498,308.22394234946194,2156.402437619482,2283.778552125868,16664.436910648205,1728.5710701154385,1363.6472680412596,307.10620235937097,2158.9494678548367,2335.429190810597,16713.503724931674,1734.7146503700317,1370.6171064045002,306.8352364308796,2216.6432186877446,2212.987048419894,16659.046238450766,1731.93701118356,1368.4051114044453,302.5098725072269,2047.1074400604803,2279.3414888752845,16749.060780693137,1718.966935415553,1365.9883249654072,291.9047499836697,2072.1155023143874,2108.7045713033276,16658.891076867796,1726.9303579449975,1355.5559172577182,306.02190289351773,2187.439287428198,2179.6276165761224,16634.98515092983,1711.5471758078556,1386.224917716912,297.8349433923458,2058.64044837671,2040.4143579810534,16640.420108767346,1730.2840955469749,1401.250046648443,307.11836657148405,2194.614251762052,2330.658858750098,16587.008306757445,1734.5519332255528,1356.7865493835816,299.54076562343226
2204.0,2236.0,16688.0,1736.0,1330.0,283.0,2070.183780832203,2243.2344718792097,16623.367077562987,1744.8372213550144,1332.8092506405787,255.58079122703273,2146.578179675846,2180.886175947144,16666.352703900742,1724.659262022829,1330.0480184033809,273.1619413013521,2480.445842234572,1957.4728831718887,16677.78010738915,1729.5862680871714,1320.6909809734434,291.5667712310396,2215.260509838097,2175.2834344111034,16501.465965028743,1718.547099451076,1347.3621664391978,273.0877382536152,2404.2428234452786,2212.0723762148928,16525.23875884721,1760.2811932608004,1317.1052013104013,290.92615281733134,2340.538296258884,2338.0044845843177,16462.27622861751,1701.1864928239436,1334.1807834182246,279.28252549054343,2298.657193234998,2345.864167532185,16664.259946802296,1721.9771990092247,1329.4057522458672,270.332508636131,2170.3712289447076,2343.602274223411,16775.950395739874,1731.9391720958663,1321.7583268089782,273.75049063405527,2220.1487651670363,2228.4753703558576,16619.31759641372,1735.0717743765638,1344.6244113515966,289.8245748713172,2182.7390622646394,2175.0215454182344,16767.11340972312,1731.851122088579,1332.0216088944876,268.49500873466343,2286.404451190698,2104.8376427575417,16780.88833966623,1731.3878363188314,1320.501630492503,272.0173497237962
2192.0,2140.0,16592.0,1735.0,1333.0,307.0,2343.85095558619,1972.9257414763922,16646.44728498802,1716.3693057463588,1327.5951774712692,310.959031689102,2106.0411906579984,2056.1970723407926,16578.706512134097,1736.8167232141916,1329.5585992694196,316.38105737030014,2105.3406921803944,2063.6149527062785,16630.274618068794,1719.263492045296,1326.468159097125,308.8541359867561,2308.6691768989012,1979.7487723754875,16645.318375110004,1731.3820248855018,1335.948540433923,298.15002969873655,2120.633799986121,2134.396852121541,16699.369631617177,1732.9202069691105,1343.8727265951477,313.0680741522644,2307.1548887767844,2136.152039700645,16574.98415661792,1732.1133866281925,1342.2174796051597,299.99356043820575,2152.8268872669646,2170.244462914106,16383.627317445793,1737.0679332578707,1324.123162761747,301.6242881299148,2282.333421018346,2223.8084595475825,16766.098496475726,1748.3648341969422,1341.1864517844413,290.6134320834318,2166.575227939764,2239.370587928085,16592.005343125344,1733.7151627273313,1345.1130239791653,314.14167030438773,2279.544164721075,2127.564110362626,16522.16063835394,1721.7939424144186,1331.1168220421705,321.29506379279763,2196.107082116693,2232.827330891515,16463.042673348464,1728.228734338083,1319.115383911922,313.28949481466486
2256.0,2220.0,16636.0,1772.0,1362.0,319.0,2321.940843367423,2324.078175287932,16802.884649515687,1767.2810818129433,1378.7483836454828,309.5283496067279,2479.4782822170396,2381.6789486584184,16501.853684982605,1779.543836347553,1342.1180559614686,319.42316525441817,2015.5802149635551,2192.9028059052985,16851.887924845498,1766.8627418193958,1373.0250404499295,323.8300563038566,2272.4679306120925,2186.3145014749534,16554.67441685425,1768.91418312238,1356.0650838956817,305.7289529494875,2165.0063601573615,2273.2751547613175,16544.789807441117,1766.2667044329369,1361.3505252916516,318.45802361888735,2375.714606353961,2251.888353934669,16761.377289876855,1783.3018840942202,1371.2030174179663,340.77578929324847,2205.629329167538,2016.5078326901546,16742.84531470785,1762.996261198519,1352.1737543170539,321.33062352094487,2231.0742199371675,2278.7726362960384,16461.92096168021,1748.5889362391442,1365.7646020466977,324.2790313462997,2452.943929473025,2334.9267836702375,16439.352264507826,1769.541361182962,1379.4424047164584,344.15259714609283,2321.1067709835625,2288.1327508530135,16484.8727609265,1775.6840960914803,1369.1259022300017,313.5335243790706,2104.6231966810524,2121.7066621961612,16574.408857808212,1769.3286490862677,1380.0417543720084,326.53745541253824
2272.0,2128.0,16540.0,1758.0,1358.0,237.0,2271.0443970786646,2100.032970092676,16433.171892586164,1749.028288521714,1365.697693677753,247.27329306243388,2167.487315289021,2074.94811597262,16674.69276455188,1740.4948678671099,1357.1105616380532,228.90306490608657,2250.6203392527223,2309.434088572976,16364.645779789293,1773.5695502765054,1354.700064514447,234.74604901314893,2447.782068378512,2038.7317024794186,16454.463969995573,1733.6524446367252,1357.889284886829,250.7267413279425,2287.356381300228,2089.179043424676,16383.564856960358,1762.321879350416,1361.4079351774283,249.62100147359112,2352.1294723317824,2163.7719958674916,16424.563158829416,1771.2196260081769,1362.582277597993,242.70484896057587,2320.040416348876,2073.2983659527017,16460.382825238805,1768.1202992668818,1369.505791318948,246.59331468268442,2202.3964748160506,2109.856424811102,16618.56368528751,1767.4741239862135,1340.4065942141406,244.02706778528514,2331.222570530146,2046.3670134940137,16500.7805453366,1751.289547164847,1335.5943209299428,239.01298813587385,2383.1380591934617,2066.0716241886917,16509.174354252365,1786.7345807611266,1357.7958496454203,234.13097973877902,2169.803964361956,2003.1976334382864,16473.73682757207,1746.6287287891173,1352.37691650657,239.55745252745683
2216.0,2132.0,16568.0,1708.0,1368.0,288.0,2082.7149223464303,2092.384282895335,16527.305167575076,1713.085708327171,1377.0441536471376,291.48626645641775,2131.622517975247,1962.6101491208283,16481.61343690657,1714.3235879244114,1357.4570253264083,285.1855638986643,2183.4814712113525,2064.806712844321,16580.05933129892,1725.1981681861355,1365.3702910893348,300.72956085786785,2090.740102069549,2345.5900784146556,16447.232160145715,1693.7050356651437,1371.266881972688,297.6126339002055,2346.694412205369,1961.6200969835063,16567.461370858116,1697.1794269137677,1376.3903681376544,291.15069936320566,2031.7201855002209,2088.138355558321,16691.518137629755,1717.0109928747265,1378.968269115914,292.248580613909,2261.7531937710355,1980.1336429458852,16596.486309522556,1704.912412295804,1353.6096932532557,308.81308473546665,2151.4950489476405,2113.285294298353,16576.606889525105,1711.2508669279212,1352.370724780179,279.5811039713405,2128.2990642369696,2284.9892456725775,16514.811126178658,1696.9194001334697,1358.9276577508554,281.72047042018653,2083.094612628125,2088.6715673198105,16536.87995415058,1700.7413381868116,1364.1448537226183,285.4098215430329,2246.2771520895167,2292.071983545903,16450.519064123037,1708.3595819716916,1378.777769444846,298.7922814192299
2268.0,2168.0,16640.0,1739.0,1362.0,282.0,2374.250859348187,2193.3433366732147,16659.115345994527,1738.830553098171,1355.2779512845875,278.62745432604225,2156.842890213958,2152.598352014294,16588.381645211026,1734.1172628067097,1358.478867893434,275.34821406431325,2232.2848556418508,1977.6034580332139,16537.055407513228,1755.4044468581435,1350.4230591618777,288.5765068855778,2171.719378880198,2175.4870896861025,16559.375654778403,1731.4360095050472,1362.0862387942532,279.59314798117464,2183.056279023095,2216.0617571364196,16740.792099409584,1752.0911774279384,1369.8298082306646,287.18400738537764,2386.8290737815196,2161.0455617080574,16632.12656984839,1730.1990904448567,1355.628126945143,295.5122620578814,2370.9796266511553,2234.4171106617023,16697.009087824834,1738.6908980548776,1357.9165411635452,274.00833701348034,2206.6969103056076,2141.343146333791,16660.94891139179,1756.8240791030478,1339.9000055039705,281.9627773130315,2343.8851035083158,2053.532317509991,16569.708512047986,1729.9906010091947,1378.5776169740802,272.3174942831144,2287.258777287216,2123.0936491951525,16600.410813282135,1728.0948301393523,1375.3477915847034,272.5495383013855,2166.553790645303,2153.677014945719,16713.686800156276,1743.0985713551477,1364.793145666403,275.5942114307956
2208.0,2128.0,16624.0,1739.0,1339.0,275.0,2221.537040564196,1960.624929547856,16586.857797952132,1746.4975350608097,1333.3657262406991,278.75112324219975,2276.537086597476,2194.716577813398,16590.511738288402,1751.1318689263155,1349.2635407799426,266.11033222237353,2258.758322636336,1991.6940711457516,16569.038831465503,1732.673047434932,1332.645222099176,284.4139893784853,2200.1387772632957,2078.699870622123,16606.349375511854,1734.418328694982,1350.5706515344916,270.55010334598666,2096.5066536801855,2025.3461128459082,16503.96180982554,1746.8984536933508,1329.2058271603257,278.6832804362662,2292.9246067673134,1908.0876823343729,16552.08270824457,1734.0262187360586,1329.374334776682,283.5948322707868,2033.960417305675,2094.1030880536714,16511.733182270033,1739.813112065584,1323.2648874452027,285.48169884419053,2200.1376366893674,2390.927632523514,16704.62725404173,1723.82205662456,1344.9744457826334,284.42492540487274,2150.4219605431003,2249.901711214892,16564.987394036092,1739.4400819840266,1347.055553809705,281.1405538437961,2353.2052979072214,2101.2955320782958,16601.749936499404,1741.2147933992362,1331.3300235672486,281.928955903188,2226.86602593993,2188.9174754466935,16614.27703365323,1745.3827710478718,1336.844030474265,276.729124446269
2288.0,2084.0,16892.0,1415.0,1096.0,267.0,2518.780014699041,2254.3637668127594,16886.902763246508,1411.2016162380687,1081.6603655843503,281.9574562684932,2224.0786737225653,1917.060132455608,16867.399254714077,1437.4799858065144,1105.5511868394774,260.0541860110696,2463.950625625451,1970.5908974254817,16812.906292552147,1421.7810748133165,1098.6676343839674,268.09616164711315,2320.2551366369626,1949.5136536848722,16906.711063461873,1403.0859759139419,1086.6779284104718,264.5217781004868,2480.8905900406535,2275.707214210612,16915.42379478681,1417.0379157932168,1104.788327635066,248.4155066480383,2489.398140206693,2160.1956769083745,16817.671939583775,1426.8413934618986,1107.2942337227826,260.66280094268444,2423.2535846037435,1977.584632547043,16946.47085644389,1408.020999892828,1098.6043186517372,271.7762799444337,2190.5198621892573,2254.7785750863304,16981.827326304716,1406.0837023673269,1096.1847139784343,255.6448200705569,2280.3255413364923,2054.332974816461,17026.5653266827,1423.4927632447166,1097.92851306619,267.23206676508516,2436.976896953936,2176.9922140680796,16925.14558069725,1430.911646147589,1093.713453561383,249.38034657295768,2260.3663805826973,2058.4926893618144,16823.424509594308,1419.7313043815745,1087.9859811598835,271.3206898594131
2180.0,2228.0,16680.0,1767.0,1328.0,259.0,2106.108161889893,2098.7857756108942,16509.266586612997,1772.2843122888778,1334.800891742529,266.21880943091526,2096.976092283361,2219.2732916213236,16608.491011596972,1783.1829011601649,1328.1005848481668,251.6236164261581,2182.9382465334957,2341.898126258669,16535.167129231264,1765.0232892187612,1314.9234065843852,251.654951612913,2208.2917851995367,2344.0562297110882,16615.844965979424,1750.2409659047564,1333.010995903365,263.8861415574146,2030.7947241976003,2302.6407989128256,16609.398496490503,1757.1975264336622,1327.0885609935438,260.83846730983214,2118.172173659248,2230.2811896799435,16660.43982621727,1755.2682931230274,1336.0351114441323,254.14929068164628,2163.1649709948488,2244.991353180728,16581.58250278568,1761.6604258988464,1321.6895110198243,247.25236505954123,2145.3037339465527,2166.7218575125726,16732.148062688015,1764.7463128866611,1332.6471226624328,251.11662423200497,2197.8424690351703,2141.234605996528,16847.80478818113,1757.9346328913139,1336.1302643002305,267.7717124055287,2243.3979174474803,2146.5180841092315,16435.537572466925,1770.223927836009,1340.3876617392075,261.46544733387026,2098.2245831516775,2147.4785596984834,16676.4475496833,1756.723565286428,1337.9722912347104,253.05613803473062
2320.0,2144.0,16488.0,1771.0,1323.0,286.0,2296.8695182070883,2069.682824714577,16508.562176647323,1781.711868705862,1327.520054443584,286.18708225692376,2282.9189145280034,2395.2547321810316,16688.625537055126,1776.435678826778,1321.9544253159506,302.8397588287407,2211.8248779830387,2034.446312658125,16324.19920190631,1776.0331889570364,1326.3754824780103,300.171477990305,2238.544526734598,1974.0642943975486,16352.862883842476,1764.0978375779378,1325.6797532839234,289.57689133461884,2375.8060695593103,2084.723825256521,16443.823231234877,1769.3073502669465,1335.8819072195713,286.26359322889044,2469.401911495672,2126.8591804025336,16343.400440441941,1780.011446538245,1310.7855618150238,295.46933653018147,2299.406427117503,2186.8251302326144,16497.842192681772,1764.4035016611306,1317.4811156709113,295.5618386707199,2344.9857413117657,2100.2923191169607,16637.67805453262,1766.7539422883042,1324.3573595540759,289.2966988452545,2219.689386827352,2080.6902455225413,16415.781191941845,1760.685822989018,1310.289004909921,291.22801888336966,2376.0019781404835,2182.326319310802,16516.032714237976,1785.673088799138,1318.6694541455172,304.7005836098656,2305.388064194025,2180.5875491993984,16523.45982834165,1769.448407262733,1324.381193953479,283.51275282978816
2300.0,2116.0,16484.0,1780.0,1386.0,281.0,2355.959816753764,2328.5522082842704,16364.407189290809,1776.6566281602059,1384.5078976008108,277.7375456682441,2170.677728741427,2120.3738783029794,16256.210274756624,1767.4975440071123,1390.5269242766078,276.31312343746384,2244.772760335607,2125.6114401401223,16454.648955472447,1772.3261300982392,1385.6108768652946,279.9844295261975,2401.920632783592,2199.911685976109,16463.820195996013,1783.4346242887439,1386.4379164663505,279.5906208890035,2375.5095012881875,1939.7412804907174,16613.306196875645,1775.2980156002616,1389.472756736304,280.581174758693,2349.454858963087,2124.694360238148,16418.480733934397,1789.0525594227415,1376.693648875544,290.60499868514864,2171.640086633494,2071.6686853199444,16565.86729582453,1770.7486780853558,1402.7885009083277,276.57913656103375,2222.8195529472905,2208.9876371067717,16390.70478512855,1791.1209689100083,1384.4912065315225,268.90340387779395,2314.98858965128,2209.5033371660566,16457.43322704082,1768.2606261965052,1387.634254885021,300.8933016671907,2350.007143436634,2162.509173944306,16436.570212047278,1774.2240444573588,1377.5698701876154,270.800530634928,2413.306226416152,1959.6819498600753,16405.133442893653,1770.5213607065275,1391.0705502306794,282.9510517466402
2244.0,2040.0,16660.0,2109.0,1543.0,249.0,2125.546513864128,2130.62443634662,16662.802699516527,2110.0547174448743,1551.9937021603823,216.44284962633844,2202.8692544262885,2237.616350989484,16570.351755584346,2114.9523726786038,1537.802736690697,235.9815754483742,2135.4180899865046,2046.902267106851,16567.321937149067,2110.5994914047865,1546.0487539299545,233.30511651712442,2347.908314275496,1973.0463310460918,16599.016860246025,2120.013948069621,1560.8729959616617,261.6982104885827,2194.245164763306,1991.9575544799031,16542.73474063947,2102.6564675321906,1549.1846164844076,250.9681521139703,2121.1603583137844,2013.0945970022442,16788.107480304036,2088.195240880388,1537.2612152199613,246.29269043217528,2369.3381343320557,2160.5614579414355,16489.86158340507,2111.7198143388596,1542.1677000978243,252.82100966548305,2100.8838777346673,1950.4247264338017,16746.288502934673,2117.481356846061,1548.1909284936203,242.31450333232038,2258.5901043337904,2085.9035417060754,16616.23871246888,2108.293714309632,1541.7969879311604,247.97552329641374,2277.7330864454143,2060.867544208996,16592.86704167234,2126.87387893609,1556.903006543861,251.9842571306444,2183.9554928521097,2162.3231429866964,16661.913071150087,2101.8441383879936,1549.0063797607713,258.1863110380288
2228.0,2188.0,16612.0,1768.0,1333.0,301.0,2089.4029527976104,2150.8267753353907,16644.16576405255,1777.310072032973,1347.2286547909125,298.55325172216646,2208.0464722728807,2179.469443511285,16450.29332297297,1758.8335268624546,1349.0536986566185,275.22082946701016,2211.8634995848593,2189.8572999055596,16805.312325165465,1773.7140577417374,1333.4853961806318,284.0648192457588,2135.622920474117,2187.6416437488606,16608.481863554935,1755.1833981786706,1318.4213215977593,314.9315381700822,2212.7027379396895,2209.1814326332556,16581.309181682278,1771.9125622345011,1327.055518693119,320.66103525240464,2207.048933182864,2332.6564349340506,16674.516364441697,1760.4036917474505,1314.462097311675,309.10725818941086,2225.11329399578,2277.080430881866,16671.08124343765,1753.2990547317004,1322.8346117892402,296.68639443152745,2273.9601476105004,2056.4375899592656,16609.06697651378,1771.0160125355549,1332.4200927313925,316.6454868646599,2356.850714854426,2193.8207813957374,16614.036107042597,1773.2484946220532,1332.6967993249,302.43492505660913,2058.3925826795307,2033.8894935833086,16746.829980780596,1773.623042719484,1331.9836538466825,316.9527688268595,2185.4139157215295,2274.9542164113664,16315.017571093953,1782.8743755617973,1327.8522144684932,300.6308111986852
2216.0,2184.0,16488.0,1662.0,1344.0,269.0,2216.7895834363076,2110.655587666516,16536.89329015392,1665.950952032167,1329.0470722112857,267.4045472105649,2276.3294647269995,2325.8028423261962,16518.797906046722,1668.8033100631476,1336.5422730504047,265.8041352386579,2179.9113154044467,2142.025723415144,16411.26158787903,1664.49114369773,1343.8731644042311,282.58148451168654,2002.5863475391382,2251.0707744142187,16495.155985536403,1650.6478684618378,1328.1085719466605,286.44102860313296,2208.5703960036394,2189.432339676637,16646.628173053206,1650.464197357973,1334.8616892715959,266.63759247315437,2282.740316528142,2163.80986205903,16600.648639939678,1648.6049208841955,1348.5008689345655,264.1529543640477,2282.9022561758425,2035.2499036791007,16602.213390064688,1674.8649268605207,1347.87602955831,270.6166934160231,2283.846298687532,2178.9289099813545,16422.48572955418,1684.6597151565838,1335.997414253592,269.6557113245115,2150.5483864896623,2228.5629167981956,16371.245991540785,1662.6127361194738,1349.7484802754614,280.49135122305427,2241.706931961456,2019.6587395018532,16419.086685889302,1671.1948380224915,1358.8813730917468,275.50069188212046,2220.2998117415004,2133.6591346351156,16597.32464384549,1653.5930347485635,1335.1523940422196,272.74937296957023
2304.0,2192.0,16480.0,1772.0,1354.0,271.0,2349.5912587968905,2112.184308161219,16493.418107463323,1779.252743499574,1346.3189145724987,278.1308308955279,2188.7927272922316,2222.5604754418437,16529.518142839614,1770.3850581939366,1341.4081223500161,256.5617953897154,2253.7697263559967,2146.3001172262207,16526.722719120513,1773.509219853903,1372.1589569759124,282.50731862887073,2312.881367946913,2304.5762215888094,16632.396376594766,1768.2475519036336,1335.0078630079724,267.3146607420421,2259.7503329490305,2143.2567938561688,16472.610371105977,1782.0400947660542,1350.9018340236712,282.3667723486167,2277.2555518648433,2079.136350633713,16376.927607963235,1780.3891113503569,1345.7945612983845,274.02334023206606,2218.6918838317984,2410.684075733489,16541.212280006283,1773.459030081373,1345.384900213741,254.90903743756638,2248.2218211197987,2181.985093204518,16462.996672745532,1776.5698163587053,1372.433677702294,266.4138693583468,2440.552148226411,2193.5128803963134,16483.4599614335,1771.2238394523013,1352.9191107398779,284.1651191448349,2186.4312010941644,2135.1761524843237,16538.68457898876,1766.2226921371082,1346.7235991818486,270.2517854133864,2198.5564867699454,2086.022180849732,16454.921258643997,1788.4061498392352,1347.6374678249697,267.1762125382754
2156.0,2148.0,16648.0,1825.0,1435.0,289.0,2379.25733514464,2351.5978070729834,16708.789005004535,1827.4861365051681,1413.9229023564305,281.2805094879556,2150.124070109386,2198.330918787507,16682.211409827843,1813.7856933772844,1429.4046996533516,293.4717449464781,2054.577901081726,2267.5281498235026,16794.172179311558,1829.502975064086,1418.3027814105828,309.08735454115674,2095.438321260369,2098.612703742152,16717.72495911446,1830.7583777562083,1446.3523670208863,287.724041208017,2098.3738307370645,2090.405318148117,16724.594830560964,1837.8801993420448,1437.7908561149002,303.98480094267916,2057.4057186851774,2219.348021177164,16597.564528066796,1820.5897727900262,1439.027565575385,292.62610618864255,2079.604675540648,2205.002626413883,16668.868348274136,1814.9851342001846,1422.9044503692107,288.0540942442561,2066.3334385911107,2193.8603733689033,16702.428663017574,1829.1232643993226,1428.48335749213,292.256968122297,2339.3876775729204,1996.1544711810884,16601.57489625787,1823.2119324170862,1441.3760427086181,281.4906020409766,2179.5293160596952,1999.6816202380062,16575.86619123117,1840.5433241628566,1444.7082785517543,301.63111121081727,2160.857956354236,2258.6827652153493,16634.31368009153,1834.1963562117458,1421.3221827720354,305.14756919723726
2212.0,2228.0,16676.0,1745.0,1357.0,293.0,2301.981854973174,2198.6670257084043,16626.263129492916,1749.0710304482604,1372.3339534356344,317.4615704506773,2195.0409507390395,2190.7454813679187,16670.486139659395,1736.974888329148,1360.7286251303772,301.7521061454564,2196.6040028775815,2220.242368856722,16473.9485717183,1750.6531315995662,1359.416448646394,290.6465557550892,2129.173409781338,2153.877691201507,16705.73269749517,1749.9003614277904,1363.0605739302475,283.60151702847287,2156.127377837249,2154.275031144209,16614.157315214754,1752.5502162287944,1359.8962238343618,269.64131674589527,1982.3074090556688,2168.475084727915,16582.237020947417,1739.4036721012505,1351.8627740824454,309.4001861157716,2171.1546737054905,2191.8530074184046,16679.418448993267,1756.1286247247558,1358.8356288147097,288.11905570069626,2274.963496729048,2155.0414893509487,16590.067963214045,1742.985927391638,1345.6081621069557,275.2590818172029,2267.6116949450084,2292.8048870133325,16555.72891801857,1747.6709250528297,1355.54738100547,302.1868082593639,2175.0779720892347,2230.4526519851834,16588.54739546647,1740.7128826994674,1360.355066296764,298.75995908112856,2237.9943036012164,2294.260043949079,16727.834233476435,1744.3724954592212,1362.4573129194912,295.9397500146159
2172.0,2152.0,16652.0,1729.0,1290.0,291.0,2077.6880954245585,2106.7574618311487,16807.808302178906,1734.2322318243746,1278.8671714778084,287.7587503777599,1965.371395441101,2229.7724414850113,16582.008226233294,1729.5263282395767,1281.4936981226397,293.89917989941193,2305.0377062827856,2068.250772483515,16562.994976786038,1737.523866625961,1293.2110622164982,287.61159999734275,2150.448035596085,2318.345382538135,16557.20431747842,1721.5031504734736,1276.9885271414469,287.9821022115631,2182.4807611725923,2099.7792679907957,16566.976365125083,1722.1036215726563,1290.4524138888314,298.2664749005255,2312.5257986285364,2139.847323533454,16737.60462871467,1734.6790181636864,1284.1597864185917,309.5994132800837,2137.450840178017,2082.6433033221792,16757.230505625892,1737.1210760084261,1282.2094793490455,295.5804400352507,2148.9786184434975,2247.585121805978,16635.945292645032,1728.3783057329674,1288.36777816501,285.61579148186024,2064.627229874648,2025.222226909926,16536.213839955562,1721.695507628294,1287.1253923476595,289.702180246265,2222.318661248054,2263.945339357878,16861.585311083276,1729.0850961829026,1282.9877378577964,283.1827263565372,2168.993029404498,2106.159390141368,16591.034433566685,1733.0092546461392,1289.8240615276834,304.96571056293834
2280.0,2136.0,16668.0,1770.0,1345.0,281.0,2405.7512893735043,2106.2286929580205,16702.347067857303,1758.985040669603,1340.5897844175038,284.96501325322924,2318.868399187042,2067.8418044612017,16727.198435906772,1750.7608262809774,1344.2313311065234,281.37501402907714,2305.498566095259,2227.521870167449,16714.70090689728,1769.1718855335941,1347.4805094733945,269.6189331265382,2350.9954480335246,2107.3575447767525,16591.330351797635,1758.4627239552512,1355.2947370758345,289.9355025711524,2191.5342082882094,2072.853170044728,16679.395884396778,1777.2519444863137,1351.370612327453,296.6988354361176,2342.3642203913955,2107.3730350255014,16745.264809699827,1769.0283726412663,1348.3207517896703,268.80197056299494,2218.2629666990524,2047.5156770481694,16631.754289756915,1750.6868594445648,1356.4941386721007,292.46397507348956,2170.950111135945,2198.506126754824,16603.66752693311,1766.5753972246287,1344.4407564565863,282.6266943320932,2291.229337796553,2110.7432564597484,16652.26716049476,1778.1796973180817,1339.9044381453732,264.0468353492871,2140.6479582884763,2227.8935366932133,16819.324478695453,1767.04718877943,1342.526876772091,275.5192637283858,2320.74700982285,2263.026433451504,16682.790399746817,1759.6625783090176,1347.4778332396133,299.8408820031095
2216.0,2148.0,16616.0,1764.0,1380.0,283.0,2015.4399744745708,2110.1982314388392,16576.76394116112,1742.9176172472633,1367.3466091302325,266.01349125483483,2318.36158702897,2188.120765302901,16467.165175678892,1748.2907546196718,1381.257720811225,282.1966984194383,2119.3142937131356,1998.0715894380119,16549.308623369292,1760.4489428299307,1382.9000009962203,297.1077563715948,2038.3663382606821,2132.3089666416004,16773.979962613947,1762.1810296654778,1384.9770657064714,286.2642250335569,2251.9211852187323,2079.602870828178,16767.66439128511,1764.5398651049775,1392.0802885129185,298.17183962889976,2234.7818714874984,2103.6421982021175,16475.055419699143,1755.7738695782932,1353.5689390871487,281.6620995238899,2173.474576830384,2213.5028098948087,16547.445281292887,1783.0825914243076,1386.615702889439,274.59970488508367,2288.4584949578107,2097.871101282562,16615.679577018076,1755.9153745258834,1386.7816402135136,270.8167817325958,2261.254234980343,2065.4709573901,16637.59346937291,1754.5703106093265,1396.7215967913053,307.02484946149616,2348.798391751387,2103.274731660703,16608.53599905388,1759.5499630404697,1400.2509988417542,280.89636177431464,2208.689484530042,2107.279715315412,16587.178291971653,1755.289192401312,1378.1622629912888,294.0201669910832
2192.0,2164.0,16764.0,1791.0,1337.0,305.0,2164.6714818824125,2021.2675270292057,16719.145021081815,1792.5305429677794,1323.6176101098033,298.83072336058274,2086.6701316047693,2189.7617288557312,16637.561307769436,1800.333508495171,1329.975067804732,290.72408519539545,2197.789219664593,2309.893039035891,16741.415718905504,1809.1048485187298,1334.1309671419478,308.5696629678998,2129.2470547475814,2056.870350292708,16870.79974830732,1793.3632707010906,1355.178044129749,279.5403472700741,2327.583649228741,2029.5004394639136,16789.49981347552,1773.7380980165715,1326.0111820582329,307.9051333937299,2125.3002844418256,1931.6827332139956,16841.78114731324,1789.2625465854335,1332.283058910378,310.42529298965195,2169.521552079001,2242.2056459229184,16651.63096826375,1792.6317050364628,1315.7670678251297,307.36318019317685,2181.047742415779,2108.0309037329093,16815.07897467202,1771.2994719852609,1339.098389328523,309.8236860475969,2251.567099830033,2167.611285450334,16825.556352519863,1791.1828679630498,1343.0876081313327,303.38407925430334,2134.4106079648395,2191.1399750907926,16713.860032465152,1804.8670618664983,1339.4752104970505,310.54561573862094,2033.1851388201235,2307.4374300394816,16708.078618292242,1788.027159339938,1353.2424129767317,309.62298989182244
2240.0,2164.0,16704.0,1735.0,1343.0,278.0,2195.913098019165,2211.601075085646,16878.97536720649,1727.496923697568,1323.5864230035017,274.9148841595279,2198.5463482838454,2040.7925353712353,16763.92962378934,1710.501147920306,1342.778161912021,280.96632154153156,2294.3852045996705,2098.410883245329,16733.01215287465,1763.231883275211,1343.7169441832566,271.7158301669354,2098.226891589028,2226.8582718398716,16673.01923538906,1717.1194038603705,1336.9582855599747,275.360940775783,2297.4022587668032,2250.4060526174258,16782.418612593785,1746.6742454404416,1350.9229071775276,273.88345919619957,2142.6199443665805,2200.772049010357,16486.057652064606,1728.6592419814324,1351.2608795575295,281.44965480145055,2146.8292347241895,2274.861367597177,16758.942503446742,1733.8825019456874,1345.6662003573956,284.1273628936375,2304.66146334373,2254.1627602038056,16648.379611300985,1726.235498983869,1335.5041767143384,275.4338951505542,2213.2682489954673,2119.6788458788265,16932.17343444933,1722.2455961212672,1354.0457305576035,281.3536985842249,2370.9037121021433,2106.186912966706,16738.424452129406,1734.993336584113,1325.4216704067383,276.00522708458544,2120.443381592321,2105.412393439782,16761.52199432151,1736.8944715595462,1318.8388200939903,264.57244930414
2200.0,2100.0,16692.0,1776.0,1383.0,275.0,2343.9752912419162,2101.351171286756,16647.549623835115,1778.1000238816036,1376.794865560383,288.0701304836003,2211.183026196096,2011.1046002934654,16731.33239352996,1771.6118955496054,1380.046656798074,250.9790765587947,2453.775461266437,2169.0156906852712,16676.348137189372,1778.8833512416318,1387.2017143702396,277.1651392437055,2204.6688311384146,2112.990249708531,16707.781115862657,1779.5985223180805,1369.7212016717003,264.9802824156832,2139.5584793164358,2142.080104762714,16592.804962583035,1777.0132454203774,1367.5816377295855,284.8243949004587,2255.7629335090114,2075.3391973028556,16636.628310712218,1768.7172236592048,1389.6690922344378,265.84044479641676,2351.189751466507,1825.5715586777264,16670.490489924243,1771.459911830304,1385.8524175309547,261.92310833584406,2190.5102946132715,2069.3337607855005,16701.32524852753,1783.6527627638154,1377.9464833209836,289.42971461461786,2323.4792614886096,2199.573909808062,16713.140940431003,1776.2098106010917,1365.2871233585215,258.9356544734507,2091.6888208649843,2124.1225199102996,16853.34112680864,1779.565292756779,1382.5294578187156,275.8922715064909,2296.899033537655,2135.3937311044006,16781.075943215743,1758.7568471180446,1387.4544971484306,273.8674787161302
2192.0,2148.0,16608.0,1799.0,1385.0,271.0,2167.406240317064,2150.962702249391,16742.4061314818,1803.2476912069142,1407.2166435809881,269.1658276250294,2057.494721153599,2222.8888289845636,16633.136356529303,1808.409240444708,1364.3928820450674,254.97295729365234,2372.336318165931,2229.425728278126,16776.30894408771,1818.9099544580272,1383.1065209435053,262.2664459164839,2292.7939167700315,2113.578201439086,16714.987282355556,1791.5260100783923,1380.677499890238,273.40154286509943,2225.5253282348617,2339.176124872069,16671.77529773846,1809.7224295600292,1390.2218955586739,268.4046343026458,2043.3587111700945,2083.09202646566,16651.656330437738,1788.3299634207597,1378.6474719018968,268.4974830760938,2196.0511852326586,2264.075047758403,16722.020956584114,1803.2773448036157,1403.578552589053,285.3093118966197,2234.274567479582,2251.644340837949,16712.108114802933,1802.3831506487493,1372.5257752647844,271.80903752106127,2237.0060812758643,2065.1548829315634,16513.943340506376,1798.6856727608292,1386.0881905174213,271.26782540973187,2396.816600276753,2139.638971862402,16593.562007719276,1803.0807748442692,1390.1613727191593,282.0868105025504,2196.070792014165,2124.507792092612,16658.975855758625,1795.9877641318544,1390.3435298885036,268.56510995462673
2220.0,2156.0,16640.0,1722.0,1333.0,300.0,2161.5146234851036,2168.0203118055306,16484.560410632334,1716.5438892977338,1327.5439210544973,305.6029022587601,2119.996361121423,2179.6113948605775,16653.71666458698,1720.1933940077715,1352.253156673274,296.6039387011378,2170.11387205417,2221.9444941008874,16761.902211192195,1724.9028672790623,1326.7461661862744,308.42696470056546,2263.00715526352,2379.649535514585,16578.455344298098,1722.8896429431543,1332.485104470872,302.0594225513079,2202.4735399084784,1963.1100948766848,16574.560766548886,1724.4424921813813,1336.4631084421922,302.8926276071445,2093.7314067178436,2260.1750554222103,16626.95133548261,1720.818952622808,1333.375195089709,283.441908150745,2191.7382069088926,2208.7969141605267,16604.87352450571,1730.2421222671383,1353.5749686205563,305.0915264878999,2224.876654375987,2104.31311385539,16684.847934448306,1722.8607973553023,1333.4947004293192,311.67016583099456,2024.212064890666,2079.5009758488145,16599.65087964852,1729.723053355658,1314.597891390809,294.919162016178,2161.759052213679,2157.636224103347,16565.953590468205,1725.5084475698789,1334.2056463660795,300.3003878083654,2155.385091647687,2156.100018644717,16679.955704111933,1709.900442815129,1336.8297828649797,290.68992073434094
2224.0,2180.0,16708.0,1690.0,1320.0,270.0,2214.121032818224,2021.0508869116925,16899.691421310836,1710.641393971362,1322.6059120912091,279.28341772748416,2227.8495677732594,2075.354104274421,16739.63491821362,1680.0607595662082,1320.5719517558077,256.8004145213879,2257.1221481307507,2122.14473533801,16904.17188322708,1684.71961627508,1305.8291960342704,273.729977129651,2148.7502980037175,2148.1049591937644,16752.171913953265,1700.3447744887026,1315.2002815140113,265.8972885641851,2043.175450925793,2244.2136320507097,16577.593727670865,1701.6218861014986,1308.853517899668,278.75824045052667,2087.499267846909,2275.166817008918,16657.217735289538,1700.4382694837877,1313.8595669657293,275.7908340659758,2273.9261428249965,2116.2743865139396,16599.10061640139,1695.333878411543,1309.605225342134,257.9000733408051,1969.1307968595236,2315.067315043208,16781.366802537854,1690.755970310715,1321.5376834908475,264.86173217205635,2242.297052597263,2354.847154927174,16747.244227548556,1692.7693665300678,1330.6756854300002,263.71533481808854,1995.3504672893573,2173.2588745568664,16722.23186362929,1684.4489102729337,1307.209678807602,266.78848343635576,2263.715044382004,1973.792700248973,16678.4684641869,1688.438832144641,1329.90759717678,273.5773784232673
2180.0,2168.0,16600.0,1712.0,1330.0,303.0,2375.1937913385245,2136.345064790041,16569.617212010777,1707.7261906018302,1342.1375129047601,308.1464866137172,2112.280986600471,2061.3893212891476,16550.159336176166,1711.8652135403374,1326.4300128458071,308.10609966428325,2230.3728414418483,2303.3037926397337,16691.798951284556,1714.0226245209117,1332.5481521546392,319.5245471913752,2268.0483840215697,2097.5483132752966,16538.510053837326,1728.8547206847004,1310.867596082852,317.7896824770858,2154.308458380426,2196.264301794975,16710.25193439498,1722.6379041332825,1326.6067751622038,291.85594368846944,2115.9259987183664,2099.978813665925,16608.919629950382,1717.355891576022,1335.8601581681994,319.59772444478114,2218.6956734174555,2094.4321613482853,16736.769091811522,1712.043466884312,1327.0396805248938,290.7326587817372,2390.573177980204,2124.751929414577,16655.109630818253,1727.0901937018523,1326.6411342426163,302.9873211423397,2055.8782948835897,2379.218151901011,16479.820016656893,1710.454114771623,1334.0875433109359,304.8989631379344,2179.6818048680657,2176.3303194999758,16528.91087523213,1713.7776215439449,1326.4585552741676,285.1124979832533,2045.894622192485,2146.8411796509686,16581.495069530698,1703.7417654053336,1335.3657398077535,303.7178060570954
2252.0,2168.0,16512.0,1754.0,1361.0,272.0,2241.2319318700165,2057.896017500737,16440.754887737505,1736.5535507173247,1340.466048438645,274.22037453829836,2150.0308790650765,2215.419918651549,16398.63149464917,1761.4227833715318,1362.8833669723915,250.56152729094308,2239.423615666833,2177.074433988101,16426.355317686095,1767.9613249166994,1350.4369621389083,268.0376672364521,2249.480203751246,2134.3761804243295,16432.12380250843,1754.1674746886877,1356.952414002283,284.0473270187258,2173.444193610292,2337.4849005890487,16378.00704510481,1744.6751624498854,1372.091376193504,261.47328374720996,2256.1191864954585,2154.4106848734123,16448.577009628974,1769.709262788768,1354.7550703332263,278.324485029143,2221.5069531959457,2246.4328063958624,16586.977379213284,1759.3809162063853,1359.7473995236135,274.67808734467417,2371.666527280943,2240.477434338321,16445.191067201158,1761.6024698036456,1361.3636408904645,274.9230182502651,2332.61790368572,2293.5217002432914,16520.287069557344,1753.9965870955305,1384.2735630879815,274.87093612525,2146.17615680038,1962.7213437765959,16448.801682393863,1745.631619685379,1352.7754424381865,265.2849170982798,2309.3631238237112,2232.686797207347,16760.592563172595,1758.1566717513424,1355.0576584082912,282.4092788783586
2252.0,2136.0,16716.0,1752.0,1312.0,317.0,2215.000233925236,2248.3709873156013,16803.687390321797,1743.3849658296429,1297.592458135097,303.07439129892884,2250.6276335742978,2200.5075317587816,16658.569062831022,1757.8939517125405,1303.774014466251,321.02988787837484,2220.6282937061137,2157.335967189779,16698.396560441674,1753.6683568623246,1322.1066458693956,317.00197288253736,2366.3092139746445,2092.1118026675085,16828.356789044163,1744.569914065783,1315.6713418412648,323.7549795460659,2201.0737213486245,2196.6157273199856,16700.24675063466,1745.8557810166576,1296.0023909099382,321.8370874559297,2180.7361819999674,2039.781214993119,16680.786493757063,1745.0243314731972,1323.9108080911578,315.84779522854166,2157.513074514872,2254.5871493316963,16631.31789364482,1752.2170285671496,1316.6084797193287,306.8866953938167,2105.0390434247734,2096.2218587933744,16558.304352251624,1737.8780741108035,1310.0385080359608,298.89336354039705,2036.2095295668707,2172.967759813231,16490.188116655696,1762.032154607649,1304.6524521076103,322.466758752584,2306.0827358590664,2018.1018805826648,16648.46448849283,1758.1774533930911,1306.8685687403743,315.11955457933584,2173.9144925734568,2308.796471541726,16679.86751553091,1745.8272664154294,1312.0079303097837,305.44434733794793
2264.0,2208.0,16700.0,1754.0,1325.0,279.0,2238.8908798451225,2365.7208848327627,16634.14469075587,1764.9929404623342,1315.3514057593154,275.4182380868485,2206.3879259196287,2092.287577946102,16715.306117233773,1753.8856243354996,1338.0637609409187,284.7476775097031,2419.9206397611442,2161.5672662866614,16499.764892714527,1760.1065204130753,1316.4355207497154,263.16678108214245,2135.855638988197,2287.6049851152534,16791.718697985685,1757.4974597737387,1320.209969466967,271.0992745881071,2395.4011294888433,2122.3084798290756,16824.073045377932,1766.9848096744633,1315.1658818691205,277.86820428330833,2353.8115856087825,2203.2985737054128,16686.272892273297,1761.1186968646693,1314.2359510835502,293.33806036167016,2360.6281173016637,2165.8201258226795,16732.67343078262,1771.0566128123087,1342.3199525767868,279.09622596238444,2314.633168189625,2298.921641868823,16688.398216566147,1754.6002912008998,1340.6263357120702,299.0829943050981,2400.0517727378274,2132.642750594175,16716.962187056437,1755.9977983966799,1327.127311292843,295.5822288307539,2345.3940661909583,2299.1692145411557,16653.49179378378,1761.2652880607961,1304.281115906048,287.52434283706225,2412.213546359025,2181.4610346845307,16820.44870512033,1750.6803255195193,1327.329851555972,281.12629104608277
2248.0,2188.0,16656.0,1783.0,1348.0,307.0,2323.3888371384305,2018.6487624549807,16688.516138279614,1789.1890943254427,1344.7943611643989,322.69536505898895,2504.95207591705,2377.2227765092534,16635.509326070416,1784.1941489099827,1348.7615522354738,318.93926586670335,2249.716501534291,2142.8290610260547,16760.024524781897,1788.2450264756283,1344.0437029086997,314.21564897156463,2110.475382024701,2304.9395679571035,16810.57378154678,1778.6372542860793,1359.722537968268,303.6283048301629,2199.003763187512,2226.5874363297266,16792.96774709629,1780.5990124897846,1342.1903931215106,283.39857348607626,2168.429519621894,2227.9143792093546,16686.92120973978,1785.1082157438566,1360.8788856776048,307.2196486001934,2256.8278727903353,1980.3507499797302,16695.028144974887,1766.5275166602146,1357.2249944471828,307.4088005116386,2192.831407086203,2115.405612549175,16670.275262810697,1772.225618101821,1339.7245734716666,322.3501461132969,2497.9736976924614,2302.560052877333,16480.5696984651,1789.6520786723538,1346.416919690016,315.77194575840264,2351.0445552205756,2107.3176231844677,16612.320780234477,1782.354622179668,1354.5661232342673,310.4916919097483,2245.7954595041083,2226.493095684458,16791.26760641534,1785.1070893662784,1348.7833562518122,315.1778753261318
2260.0,2252.0,16600.0,1748.0,1373.0,250.0,2249.369875642954,2335.320007414229,16804.846719563207,1728.7715161777448,1397.48036062799,245.24110008297114,2237.8089611874047,1993.82161839628,16643.26930876409,1757.3244740008197,1369.5509803598063,225.89096745798724,2300.531275738397,2247.2001979736497,16546.573697860673,1739.522137534831,1385.5099922914744,246.09889708009396,2210.7654317992037,2341.5239850189505,16537.47376911331,1750.773918104332,1389.4835647664756,249.08759391220624,2308.8469021987817,2015.0603747655523,16454.530921111476,1760.415364590787,1368.0933803694609,239.37976233547278,2296.9647735188423,2194.8076826833676,16708.558197358652,1740.4349854097268,1387.497352655569,253.68190585453542,2183.068846984395,2297.5069505862684,16693.79768462878,1743.2715607636264,1400.1001025382213,247.1207415212051,2227.9850450727517,2337.1107611639095,16565.76884360099,1748.8597534432045,1372.3169613962953,254.27236799660994,2211.0501930723412,2351.5905952015887,16756.248191149072,1731.46671334738,1381.5473156889661,261.04063572341676,2229.2200253803626,2078.551993840496,16412.424720123712,1743.1502891656057,1382.6245583365614,245.20232581634514,2390.3042231915965,2219.135155139438,16426.319366636984,1757.7946872007813,1362.0639739556739,272.18083730544885
2244.0,2164.0,16676.0,1707.0,1372.0,284.0,2239.75593364965,1958.729062046344,16769.832825103524,1719.0173553898078,1364.0705820280518,288.80103756327793,2133.078162222119,2059.076814253637,16697.652908890275,1716.0563820730656,1361.074453276221,279.8292326147965,2411.2358935165603,2216.0087649024063,16689.508895463998,1710.3648613260264,1383.1240858603403,270.3565856606282,2273.3461301025327,2069.150093561559,16653.06197696625,1689.2590779941065,1371.2388356145611,277.9435028969803,2324.8979166154377,2181.852824082265,16663.62601354733,1710.1886410124018,1394.249520860197,277.4183007211014,2249.6183300319935,2054.7388244413555,16652.04701677349,1699.6844236402414,1371.5266995065308,301.0949761257897,2273.6803481367097,2339.650339476513,16776.785277264433,1705.3511540656484,1373.9566220591853,272.87046129571513,2122.126211799486,2148.4220170325298,16581.79973082033,1680.7275462559578,1372.428496174714,281.28768959337657,2153.6978750167755,2018.1876967402663,16691.71084844792,1699.9008802087405,1378.5414070004906,289.40843418455785,2294.9182672983043,2116.667121655175,16639.767926046483,1716.11840753462,1362.9223695867777,274.59198338384056,2191.3961395220454,2258.804034007075,16512.83115424924,1725.632207464274,1369.9563069300011,286.17473951610407
2196.0,2136.0,16640.0,1731.0,1358.0,309.0,2405.833784661913,2051.180274128773,16723.945742941163,1730.441518210677,1345.2869349549728,312.6497414465081,2195.2752461259183,2006.9475533825082,16709.597198128293,1726.7422697569298,1354.4763002545114,308.13271608166775,2461.2459393366303,2162.3092565796505,16731.916830088645,1737.6942497433572,1364.6296575395352,295.13972038789035,2134.3501400254963,2107.866994012399,16661.56309110789,1740.7937909491209,1373.9747157201507,312.922127646728,2183.50483895545,2299.5215572475495,16773.343173622852,1728.9838942624544,1344.555228628944,307.3721078995405,1989.7537710970953,2043.1556989486817,16555.70089099721,1733.886015284122,1331.7935579064942,317.9070627243097,2291.0354302056885,2321.328919195305,16745.762618055167,1739.4632271509138,1365.816871987702,307.7467493586344,2207.150122319769,2038.959485956676,16728.886402962897,1710.8339444666572,1367.9199421373391,316.23004267926166,2338.3362902027407,2028.8485918522165,16536.275463795653,1737.8123976582337,1350.6011168341176,327.2637359496116,2246.2231523107175,2273.9452259253276,16600.043117701938,1743.4088794431877,1357.9669884229718,301.9144100500751,2315.8030236526192,2391.0592276555126,16623.28146390223,1747.7307275536361,1371.5550791853063,291.37041356496746
6072.0,6828.0,17832.0,167.0,898.0,-821.0,6202.71651379616,6720.780416006496,17788.05219241675,158.65410434021769,914.7443329906102,-829.0678819373551,6231.195323888483,6757.335119957283,17796.986405948974,169.40064774033146,909.1702052007691,-829.2195849044701,6125.056811107342,6711.518169624258,17948.260682716063,162.05523441646523,887.4880649986618,-821.7214638636666,6063.543714586247,6754.1763190453,17850.960281691026,177.0170739713862,900.0197273749318,-834.1289654125188,6129.253897360027,6762.0020852835905,17924.610445039147,171.0938220310741,891.8287634643538,-841.3514482878915,5920.325016981952,7040.218268621965,17773.827830864375,186.4272817236312,903.4008348401504,-826.8526583541651,5828.205682627926,6814.217520393906,17701.320880129737,153.3504206096077,923.3186800241497,-815.8331366266697,6118.260868810305,6756.267210455347,17913.376212017527,143.9950676858947,900.4994751431251,-834.8991339600807,6152.607084325906,6876.740920041428,17740.935430165555,170.50908983948355,919.822689613745,-824.9773930188699,6167.335763939535,6880.137320145989,17871.249375349475,161.90918607661948,905.6983192659642,-836.7029663921669,6120.879021610891,6781.0186876435355,17683.015866890204,190.7852435177684,915.793276058836,-816.75418352709
2308.0,6540.0,13964.0,795.0,1909.0,7662.0,2362.613493120748,6413.915082499156,14006.2081380223,787.8590338688864,1902.709103493241,7677.375368359584,2199.072714925177,6578.775830883755,13833.495900470192,800.8508954611519,1893.3580591318023,7681.491925378005,2168.5636556907193,6336.365306278551,14049.965085569178,812.8858684987347,1909.8406003441016,7665.405267999331,2417.642241709292,6483.771781847182,14024.847834751454,792.7371147747506,1901.663409586962,7659.1231907074125,2282.4898297169966,6617.783991905156,14059.25495219925,795.6728534600351,1910.5460230761864,7648.130840563695,2488.509044218928,6674.71602083362,13962.875217735702,793.0138660767045,1895.1981661366965,7657.224825448489,2321.4048390928265,6483.992631933029,13952.850054687817,790.6200006093184,1908.23235995759,7657.428228348095,2319.779227712963,6520.198642105856,14060.744213777303,801.6541687047533,1912.1303323804232,7669.520579314884,2095.866656567957,6582.52114562085,14075.480286643158,799.4479778425639,1912.1859786449174,7672.60981826743,2240.9358717584946,6544.891749647391,13992.947276105513,800.3180863158127,1911.8031918190202,7660.983636097567,2334.867807491283,6726.373363975819,14039.648291437225,794.2623332808869,1918.870400720001,7673.086230114367
1464.0,9172.0,18944.0,-994.0,1415.0,13641.0,1412.8881666582033,9045.747815855164,18840.062540310115,-1005.8200949347831,1418.6777805675274,13653.160147885776,1469.316796308388,9172.692489697092,18811.816670315908,-999.980322543465,1416.901626742147,13644.71917036358,1383.6914616434117,9309.587668341574,19083.968532223364,-992.4001064154846,1421.7830077444694,13630.29652486731,1371.1513401778327,9040.06382617729,19032.223436323682,-983.0079733002945,1404.7038484466893,13638.894457838906,1563.7135555223085,9383.314050739564,19027.815605665965,-988.5415828499831,1410.4610844163733,13624.320623969013,1326.3995188846109,9233.501456692878,19095.015252032375,-973.1180759386027,1409.6953015098136,13651.061310399942,1365.8075414806574,9264.704803137458,18987.605872229782,-999.9541192781215,1412.9957843875798,13643.197750637302,1444.0711222865623,9201.77848553367,18958.81005684831,-971.5261341324145,1410.4529334956703,13640.562341402554,1633.4102536074456,9018.603038174186,18793.621267630708,-1005.3363349577803,1418.6594616974169,13627.432645428169,1491.9092335726277,9256.971089858489,19005.512790395667,-1002.5346135800603,1410.086872350334,13644.295257344342,1342.345623165509,9143.997650203954,18882.24503681283,-980.8457216397063,1415.313476710633,13641.261147086285
-3440.0,-3012.0,5428.0,4622.0,-2915.0,12129.0,-3476.8619127691977,-2896.544194289095,5484.458237574381,4624.895523496923,-2918.2060102602386,12116.852956028693,-3448.58003452563,-3113.401923191226,5526.57107264616,4635.1537569489665,-2919.915592491082,12132.972631401277,-3484.067499611123,-2875.5790954598533,5414.267414631909,4621.062376906975,-2899.220194932942,12129.541775828986,-3403.3062676448353,-2823.648580146899,5510.332295667441,4647.712298278306,-2922.7305155561635,12118.998768123867,-3326.6445764622954,-3034.342578513013,5583.342241254659,4627.046961176727,-2916.2652986122157,12111.149002495424,-3487.063453031628,-2977.0746902119763,5591.449396090567,4603.306358693764,-2928.928891549712,12140.026881463602,-3555.64200004278,-2928.1267674765695,5328.0465994577235,4628.026669786361,-2919.332229021076,12115.713982504958,-3252.9562592570705,-2874.4657075522928,5392.420470657881,4619.935670103613,-2915.171473747452,12132.054814874957,-3561.949249959611,-3025.6060344525217,5245.68828886952,4625.689610126243,-2928.0532124245706,12119.426915897424,-3577.929738705495,-3119.984036473282,5216.001878552438,4635.376916448157,-2910.1858897812235,12127.947495943725,-3568.495807477116,-3141.6632063755387,5463.364548589695,4626.644875530334,-2913.1020163211956,12130.692569047234
2144.0,-14424.0,20896.0,2403.0,1030.0,4574.0,2205.89661330154,-14398.277309658773,20942.952818417663,2404.7344281610995,1032.8614118743249,4569.26809847036,2075.8982323345404,-14457.17974399095,20978.04427956439,2421.934779159169,1032.6705090992912,4586.093550701581,2066.197633586367,-14321.011458219455,20926.45473910138,2379.32579755538,1044.060020574287,4579.055899646542,2247.866312858808,-14568.203075396767,20818.78075799881,2399.8004249703295,1024.4575306478653,4566.891964591208,2060.174829611042,-14361.836422401917,20922.17276582971,2397.663451367284,1014.1752359072373,4585.171319392197,2095.947035850512,-14436.388903607454,20830.571335236004,2413.7814557828515,1045.462429111604,4573.69191331692,2241.585326783557,-14314.834510076787,21068.493100377924,2412.1667742349564,1036.7655138307102,4564.382527413263,1938.8340784082886,-14115.029069736469,20995.74782726794,2406.6946160017533,1048.080846539906,4561.92648797193,2202.9422005091596,-14438.54175477598,20932.98360507815,2392.156700977876,1028.2096784605021,4568.813340843513,2227.094164526681,-14659.06193732772,20988.906935875722,2408.88315445243,1028.5099258069106,4574.34069230668,2332.9125363504477,-14444.83096016966,20821.63630264776,2401.8050974430676,1037.9410604375507,4574.279118717515
2060.0,-3672.0,15140.0,6360.0,2381.0,-2425.0,1908.6079147565692,-3845.870812325592,15340.463809643114,6357.572101732711,2369.829952062863,-2425.7709964170876,2015.2537897008572,-3637.594454461496,15299.453113611555,6370.876945104356,2387.5350486195216,-2416.6000685362724,2205.985121867444,-3647.5410601528965,15231.26571821559,6367.263687324011,2389.0914725161006,-2429.5483399074674,1972.5013666613684,-3600.374168224691,15026.58091383553,6364.019352626795,2398.448488998924,-2423.919885897108,1786.4170595766732,-3751.77876429265,15259.647414229876,6341.411374047906,2402.737678017423,-2425.8105192156877,2039.4280591360712,-3660.7576320701337,15248.149698412435,6355.041020996294,2392.6913397649278,-2431.678126877034,1962.9940248047428,-3624.329770615189,14983.67214578751,6358.637094617959,2389.9574979029826,-2398.947954229573,2061.883020194123,-3641.718857908423,15270.104890444769,6363.250863030069,2388.9195854888767,-2421.823970704985,1968.0570770610059,-3676.554138287741,15116.962803569608,6361.483923153323,2396.6373071615717,-2410.228623332336,2075.5455115600435,-3679.8903804038646,15131.311123767271,6354.387010424662,2370.9721312728743,-2425.3396922669003,2169.1078938957717,-3889.6228658766713,14994.199008746204,6363.0115593168775,2364.531429151431,-2430.2884413680363
588.0,-4936.0,20196.0,-1407.0,2716.0,-9253.0,634.206391022702,-4923.860476600259,19952.47256627269,-1431.345165408872,2722.3872171524617,-9262.839450291667,612.6785461958063,-4865.141082338559,20260.60027662807,-1393.6716603173588,2713.679343525923,-9266.698524897338,451.0268736125181,-4784.731080540774,20366.98381393993,-1400.5524465859335,2731.4971224491014,-9261.668321105495,702.3114918909464,-4835.242778978154,20312.282475541248,-1384.206121935085,2724.669583897763,-9265.57867054239,676.9630911670508,-4942.663959361035,20218.91831144318,-1411.376370960443,2714.055858992895,-9247.632320779356,476.50131719137033,-4906.532610464872,20237.260262162286,-1421.4933551021331,2735.112892077088,-9264.059695588556,543.2649157355121,-4814.28135104266,20028.447783210988,-1412.2677917969304,2720.4105374147557,-9243.615354877351,629.2730273597294,-4900.611416807074,20127.621670090244,-1408.873229032661,2712.51678952521,-9244.798483947568,532.6199829079312,-4895.38738326493,20037.616965447927,-1432.0092860622358,2715.5727592237104,-9240.817944880384,641.4887288991708,-5047.594129961992,20181.935568383356,-1408.4458157940353,2720.636399391102,-9270.606187539826,463.12742639919986,-4943.406679144135,20078.108371456656,-1403.8246472248434,2711.5669077979446,-9247.773473400312
2732.0,7724.0,14588.0,-624.0,662.0,-8506.0,2791.0265589978894,7363.614513733568,14424.778809567171,-623.2069532394199,654.6827492112293,-8508.077330190432,2734.9843068597083,7701.910236734723,14565.582665705077,-620.0300582544778,653.2613985079697,-8500.053968225457,2730.393948056183,7782.310959750579,14680.658041758114,-633.1051858526323,666.2608172157206,-8518.818512423366,2780.509110757385,7541.315227529559,14612.165734485572,-612.4729797235747,651.4195245640968,-8511.523393547612,2580.732951519838,7534.208422718601,14622.809170615486,-633.9273439004172,679.6517235911097,-8505.918078518042,2733.4182505042418,7758.467092034931,14600.882626339651,-611.9879887073201,666.5127993607285,-8504.090082922234,2705.2130621632305,7604.772208252104,14731.842549950887,-622.6932176591345,664.6136409430262,-8504.158822575282,2586.0306039275465,7594.239140948447,14478.555227813966,-613.213339214623,652.388708289999,-8501.716676561391,2649.800999332188,7595.920369066315,14656.143006804843,-620.3257699879659,666.6923776504603,-8506.970690279413,2675.3448188619295,7675.65610478695,14538.458289133067,-619.6965028453033,666.4265162510679,-8500.817496850676,2645.2259972511024,7930.313071197619,14690.922723549638,-639.0080965305978,659.7564753778884,-8500.060556202734
1808.0,7984.0,16404.0,2584.0,1569.0,-3285.0,1857.20301857566,7817.175521922472,16443.317699490486,2563.4554938929864,1586.4839014451702,-3291.3660906554824,1811.0711808178357,7916.066064514761,16435.88162991858,2578.4772697162243,1570.1398794106449,-3288.5011688227546,1819.4231431356984,7975.222469298192,16330.300422618726,2566.131148571588,1561.6644866289803,-3282.4545701537127,1893.54948046199,7923.090500588027,16425.696010312302,2579.201479333373,1588.8817555770484,-3298.98485210251,1837.7241934311714,7898.552931715956,16429.255551108196,2580.62094438764,1561.5631316727545,-3292.1637380256852,1672.9782524329632,7769.92633875679,16200.089746901269,2570.4725395907262,1567.235414584594,-3278.845310539715,1741.9480445470742,8189.521145395332,16423.317332675564,2574.2967440152156,1579.1539385853553,-3288.395168746619,1977.0259791550175,7815.573035775626,16681.633255960565,2578.192936640355,1581.0149759979697,-3295.0530794896704,1744.3912448808087,7791.435407484105,16361.197930211245,2586.0186465057363,1587.3133873878387,-3281.712175793864,1641.6904577967211,7861.498476613927,16448.864991708244,2588.943713589384,1547.260925833802,-3298.411308481551,1823.356897102357,7967.2074984039755,16272.16249268415,2583.5880392529198,1561.619584677154,-3296.341537289362
2428.0,2940.0,16620.0,1922.0,1617.0,-1036.0,2477.4848776488498,2854.3372774802,16898.73973913674,1919.5762273775806,1621.4217768701071,-1048.9172934944752,2541.8065443008045,3056.577768950353,16476.86926226307,1931.7752480086283,1624.6592446006048,-1033.371906789026,2515.7165360396107,2931.8214382442648,16597.768953200914,1927.0245410999617,1620.510302808774,-1026.4036661183,2491.7300892246544,3136.352845938641,16587.19718921746,1922.5981050997714,1626.2773443110975,-1053.8643330635696,2518.649728087431,2970.182272168375,16542.346829473543,1898.5667762217633,1627.1490783999288,-1045.056862259425,2336.3305374786087,2874.987115618569,16850.77579949357,1906.8814677029404,1615.0832890838274,-1048.787087852337,2365.8955622941075,3068.2841896167142,16718.688049335742,1920.269958223902,1627.72747380647,-1025.5412823886645,2603.6498016242895,2857.948151629825,16721.772465440834,1914.881032715532,1616.1826098179145,-1036.2896489525972,2389.372604181771,3050.914105262372,16712.99790170518,1913.6393460873187,1614.1864680403655,-1038.4852656598719,2397.546198295283,2939.7413173048326,16592.76969378134,1945.1055860522952,1611.6418203876299,-1038.4418384814514,2442.0198594876515,2806.9201541519265,16526.94324680027,1929.0410109167788,1631.8558097588257,-1027.885569576954
2584.0,2388.0,17152.0,485.0,797.0,109.0,2445.3500664159765,2325.915296915562,17338.490667471353,486.7267683799966,770.5511282047169,114.50169553606784,2505.795356040646,2387.1771302940638,17163.589692463567,496.420634529659,803.0502728104243,110.89444296055987,2653.1998113480886,2352.4399558300656,17023.533465151948,504.55751393675354,788.3258892685777,113.54179100845373,2494.103718967845,2392.481291208657,17037.918964754277,490.5177947876656,799.1796010701942,101.24779958129929,2567.834095776295,2314.0512775217844,17203.633819685234,491.59585494042216,803.0752918433672,110.96093583955222,2595.7493154447584,2384.214978180118,17207.891447581063,484.97847901029536,799.6562588065754,101.3964082029764,2641.017072621816,2340.1676789863373,17259.71034707955,484.8114458489044,790.3910128339876,97.55007690323491,2528.4089257162855,2362.28879621033,17127.892110549583,477.0338640691682,788.6145242094428,105.34040826815584,2527.447262870481,2421.1807643584284,17153.003224838485,492.31492924218156,799.7495696447893,107.08126634849158,2443.3623769091896,2229.546443283659,17034.251222841056,502.68296796818464,812.5692221444352,115.52916054976775,2490.3897454466223,2493.043840828162,17060.954909720414,487.52645308870297,771.9115178040092,112.76947450344699
2712.0,7572.0,15260.0,46.0,785.0,2367.0,2601.5908688785667,7573.258670886129,15127.27296516142,33.99778276834198,782.3083850714883,2386.898184122087,2697.5724610240363,7434.274023290151,15275.427624797074,40.931805793266626,776.4510177468825,2356.01285624417,2727.016682810782,7634.360387664082,15150.351840907273,38.657082876723074,799.3257945002877,2370.3858966976327,2744.74384658187,7657.746160184279,15304.086025209222,42.371640661746994,773.7640795409013,2359.821325606457,2708.7063217442064,7563.624278946389,15293.324463962335,61.33778256668371,801.78537067736,2369.0589437765016,2625.061639425078,7788.267905188496,15398.236020463439,56.55556140689133,787.5873128983621,2388.2684409812223,2725.7468104891122,7599.531141712383,15082.536560300028,45.2130349223509,788.8168473373051,2363.2000585228448,2659.3441523069305,7718.146952551025,15189.106520593059,38.14202118998798,786.9587186768816,2373.9805025810965,2773.525246208569,7758.280782231522,15144.044787120383,36.66607606228218,783.2315138281945,2366.8998618705496,2754.858078907633,7469.787963831033,15239.470059263831,49.70327804564053,782.6355238555475,2364.9314905380456,2667.951806840999,7629.479448426508,15357.721731899,49.42250426577631,774.3742436620761,2376.56686209145
2976.0,6532.0,19004.0,-24.0,-640.0,7958.0,2950.445659376385,6503.805198922409,19060.896799805716,-43.64079944160961,-637.8622993833386,7965.6702031716195,2860.771043280834,6607.8203703991385,18957.940025809246,-13.176299826825261,-651.8648088970237,7962.797966648634,3066.389305448,6500.746255290465,19121.30875754387,-24.942020830861587,-634.6030915428472,7954.017681235968,3162.110573773123,6502.540969305892,19066.30193096117,-17.821617530663943,-644.0612069750413,7966.0555036437,3031.5114886302786,6496.600035861889,19039.894419016407,-30.703462328632888,-660.9748077575257,7948.772331776754,3062.0067441390293,6524.148805826868,18993.125223080024,-33.0331740461357,-643.730204287653,7969.971463534734,2920.4334158693655,6443.926026547035,18907.041798753595,-46.4885473627537,-643.6197674251646,7953.612294669472,3085.2990400704666,6695.209286562906,19077.465272648948,-6.895020591422526,-650.7916032427645,7959.689967200335,3029.9514826443806,6400.826093262922,18947.586260313856,-7.391739435889566,-630.2426442785393,7975.230740337001,3049.8492448302954,6531.501135384816,19206.503084972857,-26.075622255419525,-640.9680510541186,7958.966910064406,2922.319365138447,6506.413662183472,19061.57779203166,-38.659711891806474,-636.1468222138069,7970.951150997881
1480.0,8832.0,16060.0,-3098.0,1572.0,12751.0,1522.290281087933,8879.477342045366,15940.515330334803,-3093.326148204697,1563.7632138018603,12747.74022598785,1487.9701787692231,8721.369189561894,15978.46549925938,-3095.431204090945,1579.5932912826122,12751.76156254109,1557.858209800173,8766.299893961379,16125.732806096625,-3076.036858704166,1582.6934330553702,12752.728882468811,1335.835452750373,8851.49902242013,15904.122678671756,-3076.0496361886935,1582.99306399407,12734.169154086689,1368.1307811501456,8865.218171979242,16230.660426355475,-3096.758809295276,1571.340190241649,12738.873334928385,1528.9240873908961,8752.99239194028,16172.828033641345,-3091.0816819568213,1567.8710486585217,12753.548514120637,1670.7334758047534,8948.081230433003,16245.713306371594,-3104.05344759858,1578.151963966191,12751.908059710631,1515.821101348553,8886.806574433527,16346.65627633314,-3094.5384062121243,1568.5010211212957,12751.928943858979,1469.951269743746,8842.122825409055,16029.092782876294,-3104.1914998205016,1572.5928068226654,12754.212604210854,1450.6512252091416,8826.241908475244,15980.169225422755,-3073.2349142756916,1580.8586683539675,12749.467781513491,1432.0000978614169,8955.552963564893,15982.931391309417,-3107.7897801440927,1559.2981405148432,12747.429752028711
244.0,-932.0,14204.0,-1091.0,63.0,11927.0,112.21610351522722,-889.7898794656354,14270.819989270318,-1083.0657283320902,66.63941407509171,11931.881783126726,63.010190948702984,-1020.1917660337006,14290.801384325727,-1106.0150285574562,82.23600073994548,11910.32312659298,265.71170312261046,-1033.6216795765374,14191.05745109926,-1103.5365695427602,65.51154667342196,11947.41570272672,318.1695910939788,-1126.93577164677,14321.295672791948,-1077.7086294024239,64.02256296042275,11916.273743121224,212.2662641948038,-999.6896947761794,14399.097135209351,-1101.0626956847545,74.01311856447414,11935.655621646045,298.25874495987114,-793.44826508828,14036.393589935804,-1100.6858916116519,86.98407234466988,11910.914255391135,219.5913633839914,-951.4742929682227,14335.562892267255,-1099.7902688236597,60.05222464619017,11944.465294047546,111.79044600695187,-802.7717453857223,14246.11782816633,-1100.0189014840541,83.28439242179773,11920.867416815936,65.91529153832025,-1064.2441041389761,14218.797362381894,-1091.345429942689,68.80742001010707,11939.757089951618,340.55971140469626,-1067.8947843942785,14132.639660319212,-1091.9573206542402,74.229384777365,11919.006664524673,444.42266377147763,-900.1302048621028,14217.342281356765,-1077.9864223300106,65.3639737262049,11927.38581843669
2648.0,-1008.0,13752.0,1644.0,549.0,6475.0,2736.141168711185,-1103.2880257559439,13700.023458806314,1652.5275195171887,548.8660458957186,6489.012166999956,2693.653080043736,-1027.706831593728,13735.701645598909,1647.984827308472,543.844999292869,6467.556025351187,2682.0243103132357,-950.8537404315291,13807.289212841175,1643.0446403614226,549.1829358752684,6463.300607458599,2737.8284180040014,-847.4174325523379,13845.95913210749,1645.1541983200823,544.6708631905232,6456.147239365817,2622.402535185286,-1007.0766820346594,13582.55988895597,1642.2324837786036,549.8175761443613,6478.505842710737,2630.5349174632443,-1051.827893283165,13785.05129561254,1644.2294749758835,539.632650051304,6501.763390181224,2671.9265034933833,-923.9458909544738,13485.550843985598,1650.1449726753474,564.4271259936284,6471.354512459579,2692.3637472736705,-1029.6159147484857,13689.593973736944,1657.6369706720898,558.3999485774083,6469.719220393212,2615.7669944175423,-1007.9166806787978,13619.22564019819,1648.8195763618053,534.4103905980659,6473.112442249121,2672.7104816958754,-1117.4747741739889,13884.576012446174,1635.5013074388328,551.5269451104041,6457.864032486683,2694.890023232596,-1047.5375422843163,13647.316590660042,1637.2535379830044,556.1989430915833,6472.042181433665
2080.0,-1680.0,12756.0,2926.0,2248.0,-361.0,2077.199520400616,-1750.4073392201522,12700.857914824352,2907.391429204163,2233.8932278561856,-352.8368448355832,2057.335379265584,-1613.8409656116405,12745.698763638502,2914.4265611982887,2247.145391570402,-376.56612515298326,2016.856202004231,-1954.802898114485,12840.255921239312,2932.169470258271,2237.64650083326,-352.3369549141221,2018.0165263404958,-1781.442034659614,12788.983185774685,2912.5969404514653,2262.42012789803,-347.5063397077529,1938.2691865230747,-1655.8435343594113,12898.862900773313,2923.096604648153,2231.053738889638,-349.95780296910215,2222.4930693921756,-1820.283349226101,12700.781620989586,2925.820719009384,2246.03304655244,-367.36892830683166,1972.4147128013044,-1718.5019194751014,12939.471569134723,2925.7691034504346,2254.710007269292,-357.45240907784364,2178.531171449064,-1796.0939340283146,12802.506062510336,2931.335290767678,2242.64429049556,-378.73581573160544,2352.5675467706187,-1707.102244789442,12686.242693484153,2913.744491993217,2236.553453215714,-358.12812174109314,2194.0874569127373,-1557.909084984052,12782.842288250404,2916.602868758658,2240.4088328153266,-358.7821497253998,1956.0083407157103,-1577.3234699947257,12721.31566123717,2915.020014232747,2241.735121788615,-349.4832586117004
1880.0,-4112.0,20464.0,3091.0,2966.0,-2597.0,2023.561002461534,-4031.1771378522562,20440.927529857912,3097.4427168715206,2980.9000457654856,-2609.9371694449765,1877.8201616003028,-4056.225338904452,20483.962253981164,3082.8159312384046,2974.0388127302463,-2607.708556463272,1836.8005113924914,-4027.0408232549903,20370.089907062305,3092.4847924050705,2960.4106869381817,-2577.3015997976468,1823.3489016961837,-4225.522114382772,20484.55902596489,3096.126208488241,2952.6243779679166,-2600.9947935753116,1931.2901339365917,-4165.178860597071,20401.293062340366,3085.1807831440506,2952.0623136974546,-2602.8183908767387,1775.9444975662163,-4090.3338809395086,20490.048811895096,3073.8972469427445,2955.3032849797028,-2602.9502217963886,1925.7944305184653,-4179.9592665054315,20503.632651305827,3096.758096005989,2964.3154350262175,-2623.6887600039186,1887.1125749831517,-3969.610319514941,20333.61988654632,3092.6652411762184,2970.1114171023346,-2595.687247709588,1865.199418270116,-4053.591231966382,20412.484207927657,3095.1321045428804,2976.4794070494017,-2601.5610738278174,1850.724093927115,-4123.428950851715,20253.715070709397,3099.784479749284,2961.5828374087214,-2603.589569614981,1910.785556060294,-4053.4990648440003,20458.093727456795,3080.180427336287,2953.421283850335,-2592.9569133528157
3940.0,900.0,15204.0,3573.0,2013.0,-7789.0,3990.678464911681,840.1688197074495,15078.637774735129,3563.4411936223178,2009.1039827073705,-7800.254967778196,3938.7644972854355,969.0196223724244,15382.083772438886,3562.279386366965,2013.4695679331403,-7800.3271873181875,4008.1048157519563,906.3490990627909,15054.102760738102,3541.153331811144,2029.525862860437,-7794.473270853725,3980.399585736359,969.3517356355139,15259.042558543168,3559.39082213299,2027.5080609232575,-7795.621608692404,3843.178044344025,856.8368472890728,15354.919423947389,3582.749505057522,2017.8265051495973,-7789.402047252354,3953.8552314875546,1003.294142823702,15337.323518647687,3570.490958889062,1999.4448067595301,-7792.262895480365,3799.644871856771,994.6062797762438,15212.154153041207,3546.705107914612,2018.7634066484309,-7789.966917783685,3963.890201496645,912.1002494137177,15319.965410784624,3585.41831523332,2013.5031332111996,-7799.952822604354,3913.3791731849055,896.4888454410708,15188.446534012282,3546.7564322508247,2016.8612573805694,-7799.1858604868385,3996.8661459303953,930.7779579039843,15295.91179245859,3580.1620516985004,1995.1700067039164,-7782.702990974582,4089.7422481072804,977.2326013963375,15430.516326182053,3555.4359807988153,2000.8822842746074,-7788.926015197163
2944.0,13244.0,15912.0,1203.0,800.0,-1965.0,3092.281580024047,13173.855298557868,15674.79048228207,1180.606927121304,797.6017770312077,-1959.8062563018864,2790.609204931968,13098.626186493568,15919.255324611813,1216.5002706156458,797.6398308430764,-1969.7020670653444,2816.8710738905183,13304.499670223955,16068.395215937027,1208.1120884710524,798.8131209478411,-1963.2861662314492,3099.6104897636233,13318.881780563972,15997.289844997704,1220.9253584421056,776.7756687426831,-1976.3653844479159,2704.6889919164987,13150.060479438787,15758.368029506011,1184.730623546683,789.847763073265,-1968.0248664761662,2967.1609823859458,13216.903888692505,16009.701547271465,1225.550956156323,783.7221032967369,-1974.0713173191414,2771.1174239153866,13212.079876048288,16083.601137899605,1196.4609141230997,812.9530863361324,-1974.5310344812412,3062.175976418683,13391.01013038043,15724.344041892515,1189.527303854426,802.921879336006,-1960.6006959901013,3035.8473957690535,13228.099878872603,15891.459943495043,1213.6459511199334,814.5297428529376,-1961.6221762681284,2925.450512235727,13182.392038575303,15930.428822700802,1212.9425288798534,797.3398803036296,-1968.217273172864,2848.8809489347245,13206.67554777947,15809.499657130658,1210.8382320224157,799.1711831892488,-1975.9345147117906
2484.0,4112.0,15792.0,578.0,441.0,2336.0,2650.6279144196897,4252.36909569117,15819.368686093903,569.474173098409,456.65265837762104,2331.543365498261,2478.873489784061,4261.865941725561,15834.959756417404,579.951384105156,427.0285298785962,2320.82563973788,2471.7801123286145,4107.661466074834,16056.067561489064,590.0670564644995,426.14563133259776,2337.7583028838076,2582.9741949284903,4191.5713379302415,15760.34594866959,577.7023642531291,427.39888838806604,2335.458157025363,2366.286999697271,4133.091308891442,15640.47252721501,583.7190384310708,436.3611490798429,2350.2629973234,2559.4887813508376,4082.5856351677594,15760.195510622285,574.4192756007217,431.1747721713335,2346.710544093462,2381.7364973238546,3922.450437789491,15774.904148802978,579.8173349418314,447.09167200017924,2334.1125866735892,2384.6897478358082,4117.518754685339,15778.212972621313,581.8085534396811,433.0845445789401,2341.250874042444,2528.709888002209,4050.466295839501,15573.0970335909,564.1833696090638,437.62589703498185,2340.166281449054,2770.6798095025165,4100.822700655553,15970.190228918296,587.3744127961015,440.0983514467482,2338.4034432110543,2538.8737324806193,4117.605169397098,15743.165266056896,585.4149665659068,429.02780190874466,2332.0825083431346
2636.0,-552.0,24332.0,-281.0,102.0,5779.0,2871.554228807392,-482.3975757277598,24242.817403800953,-256.8464808834522,107.56818795142487,5791.415605568594,2781.5223403418627,-579.5316679018083,24310.786181987605,-268.68536830730494,108.2452195874875,5787.286998154279,2262.394114104957,-604.2435160663188,24427.648664646407,-285.7726115100884,92.59752427202034,5782.807185245509,2574.1878041645796,-564.6880371740148,24270.171557298192,-267.3630960628507,99.07574767603634,5768.209461331498,2492.382522680689,-561.5812875143902,24353.612390510203,-276.45789078371564,110.18218680242062,5776.348539792365,2569.437617665876,-402.10904987243117,24381.741308426903,-281.7942123366022,113.78918537077345,5811.560824863753,2512.5119447705415,-760.3509358424263,24503.337627511424,-282.625190253156,97.26332970640888,5779.457384881511,2550.386230364322,-677.1494372941189,24311.32659164094,-276.82226288800484,86.77317794249127,5778.337650586762,2689.7757363088294,-485.82582296724524,24624.3630904025,-266.975935412872,92.60828747739677,5776.177485394718,2749.2414571548234,-599.8877524084165,24363.94497383083,-291.74999349379425,79.04763308629643,5782.128172249971,2538.5526604078063,-610.7413104192872,24206.935700676186,-275.5983894217207,109.06245584628418,5781.109301941502
1800.0,1392.0,15572.0,1614.0,353.0,7954.0,1709.1770410090344,1167.3387096436527,15643.54174821393,1609.0749364976773,349.57028078497086,7971.360259767167,1782.427149822862,1328.9045913787565,15484.16594973902,1613.9346274092745,341.5598551478726,7946.032182511122,1683.9947900273862,1519.8386299565223,15491.930372551975,1617.8775026467229,360.58511899155917,7952.715150909907,1799.4151858971989,1327.2753997132734,15671.127412743586,1617.7567453047031,349.62633829211626,7960.102435138611,1719.6899660044094,1367.6656584347213,15501.332429292172,1612.4063207995875,346.68061181067986,7965.011503516404,1807.0365111759777,1390.3858625026583,15434.428036767917,1609.3913907645883,349.65526060905836,7959.089624422389,1803.571685784215,1410.1999382859988,15486.077359695482,1596.6681832459456,366.5208783766829,7967.181923226607,1796.4471705875478,1389.506540995213,15702.095583152284,1612.977776485221,350.6497721884059,7946.900745023784,1825.5020404687477,1315.1844903536105,15512.587876373082,1597.8678726429473,339.58343435918016,7945.825039948801,1845.1503420446186,1353.5735239533044,15592.157988468207,1611.7781759002278,347.3862889835917,7964.101482808438,1786.3316046367836,1490.016414471306,15459.665162699983,1625.3500331638618,337.82960137119653,7972.162195398497
3008.0,-8708.0,17892.0,3471.0,1950.0,5179.0,2914.2004514718037,-8545.148585436831,17790.077660487583,3478.961662254477,1939.766673777102,5170.940283120994,3011.085317274569,-8785.499475390654,17908.404212378715,3472.7100966118983,1940.3434633839372,5183.461190770048,3115.961876548599,-8668.87071887024,17803.830411802675,3475.1798936541613,1946.585533890578,5189.4948896643555,2970.5223566987347,-8670.921614685618,18044.806056674992,3471.654216279825,1932.740466108888,5175.492083952606,2930.2909198880734,-8739.931107736553,17960.90796865086,3489.7764705318414,1950.8411771615488,5178.171237691341,3020.283413587135,-8601.797712718631,17784.59580924533,3486.1174342120607,1954.3547898812326,5200.081344930688,3034.2706481894397,-8694.112687731227,17900.18683415056,3480.0845765096637,1961.2546142691053,5186.346525766478,3236.078706790398,-8470.716920700128,17797.21865955548,3468.266501363646,1930.9305472306278,5181.640846061971,3005.262554359668,-8749.127882639163,17983.53515703942,3465.01577819429,1951.265131011786,5170.4782260399,2950.825868449325,-8585.968171073897,17767.99930462847,3484.9902009277444,1961.1877309565575,5184.304099777987,2995.518365822045,-8806.882128523113,17989.636708317325,3473.052238839311,1967.7816460205688,5184.102216498103
2456.0,-2504.0,15276.0,3613.0,3549.0,-96.0,2469.8441627460456,-2402.361084659712,15257.835554957079,3616.3983362645245,3557.8774988399477,-93.68838465079874,2511.175071867755,-2564.005563364911,15240.45117767448,3595.3791793560536,3552.1114423878385,-93.45080168265679,2192.0138013529327,-2510.682117541341,15374.699379530128,3607.555903884769,3557.99153497938,-99.69940022491814,2471.3291395468914,-2621.4165749322597,15268.88808524812,3613.1723206946226,3545.3438460655316,-80.54613155465907,2379.4803090555615,-2541.3916578097487,15180.534082885606,3604.4227908278613,3554.892472023839,-74.48410068725859,2540.85813464588,-2346.710996046206,15282.082365783792,3617.3192640303523,3553.435782062074,-97.54073195266493,2390.8348548171216,-2456.8154599237746,15297.55315428237,3623.382328514617,3551.995708657407,-98.95063163599175,2476.73564729389,-2287.248121484447,15309.33846064507,3616.6711737446717,3556.889490832671,-97.63199859415903,2522.2747985880146,-2281.9425744408554,15330.280527922501,3611.0250197353625,3554.3693372366,-89.1765253575476,2386.8711699785686,-2501.41980087505,15250.215283474738,3604.722506804252,3538.54937430461,-118.09552968540882,2463.3007254553686,-2350.551370339815,15305.144259316803,3624.771588811717,3545.2507302693875,-107.73965109323419
1084.0,-4184.0,17768.0,2829.0,2648.0,-3753.0,1022.1912966659735,-4188.051016027148,17845.863650755386,2820.9707863642766,2647.595863333326,-3747.8241682555713,1120.8096132607154,-4255.125559892307,17916.836738662667,2818.036041803146,2656.1229780902963,-3776.2513826872764,1065.9593245087146,-4110.053887923767,17747.518012258995,2829.3970083798813,2650.664696342149,-3754.950952075641,1079.9083263607833,-4227.13324574083,17693.817346006563,2824.1778732148605,2639.931815487916,-3763.197910643118,1040.4857912792452,-4099.909622728271,17820.190147619465,2841.1933288746873,2645.2712429671624,-3746.0026204488913,1042.5469376586254,-4290.631056619921,17830.98906392684,2831.9700345470956,2680.2050841504697,-3751.344877165647,1056.820749212113,-3989.8960222084556,17761.50979799965,2821.8737036693396,2679.756385904712,-3753.541167208616,899.9699682944386,-4282.286472943535,17681.754471089123,2824.7198463870777,2655.8286553004114,-3734.1223293176427,904.4590185569921,-4247.693522025785,17958.113964282118,2797.780503957892,2638.118902790713,-3775.065676636318,1238.7235054212401,-4285.686495464465,17649.27024210458,2821.7643625913533,2669.193827146382,-3741.870667857733,1208.8127162083154,-4148.957324370554,17802.04911042769,2811.2231704829055,2657.520021670748,-3735.4156709521826
4400.0,3432.0,15808.0,4002.0,2562.0,-9538.0,4327.26737303406,3281.3088228511006,15846.512370838263,4003.1092497030872,2547.0906713444615,-9534.502218608452,4394.318414665205,3307.783452579077,15775.306895522092,3993.9279443293094,2577.6018079253404,-9537.079323544827,4412.807026751856,3353.554992166214,15791.569976486013,3993.6116621540314,2550.4919581867407,-9521.560103498874,4489.671765121009,3527.6862530424933,15790.666396497789,4018.2325044714967,2569.661260534798,-9526.750896472282,4308.762075565287,3584.133506352305,15836.602617056,4005.667296438504,2565.104434684318,-9529.413976039392,4374.454579070451,3334.066099238859,15702.104988388239,4014.453215101404,2565.522463770234,-9528.1789026967,4330.977613497687,3370.4179088349233,15699.209138441454,3988.4853389272944,2565.456515222684,-9540.0842662915,4494.514816604475,3375.3944351124183,15919.6331855707,4004.245945459567,2574.779218572051,-9533.406414007943,4326.285700483375,3343.1490651145127,15777.474722795478,4009.024854468423,2558.5875003299716,-9524.81692325844,4317.764872377258,3354.234191780479,15923.7993583895,4014.642964257028,2568.4108388197224,-9538.533283181214,4399.974352964342,3443.3278695140552,15930.222311495007,3993.301161033112,2557.47718159166,-9535.796857667905
3104.0,12304.0,16308.0,1013.0,501.0,-2926.0,3241.164810180173,12398.485133586273,16400.341261846585,1026.174289867088,501.7542509238714,-2939.315915097504,3129.7640377067873,12327.696023377548,16331.81677998145,1010.8485420342339,505.03244359753995,-2908.501796203239,3118.8385019076704,12453.901739616838,16427.601480653917,1028.8295239312752,515.935033348067,-2921.740758128756,3227.7257195281204,12257.312719157508,16255.642118599706,986.1742403348666,503.6964780856829,-2930.5798378368368,3026.0929913899404,12356.957736782018,16243.659055759646,1011.9629701936597,483.29876527103096,-2934.968390176214,3074.2414757849547,12363.412765251838,16373.039132668979,1016.9867391639538,472.0766172608444,-2920.6534363016885,3169.2595212793403,12283.490322365087,16159.553826001342,1015.205484567188,504.2808635090849,-2924.2646586882493,3162.675295817551,12445.053430375332,16351.790144426366,1008.6529432740488,499.1019632342189,-2929.8789835771267,3010.3776633836005,12389.174157130856,16144.305461473125,1017.7073279025874,481.33910532673633,-2925.392726090442,3026.225118195959,12374.348558946745,16202.456330879506,1005.2635472399866,483.7918493242959,-2918.4249702133766,3256.131802423826,12264.100342449752,16317.193269806032,1021.089108424071,490.7231866799273,-2924.1693933530482
2708.0,8356.0,14752.0,813.0,677.0,3175.0,2642.9124033251674,8361.479356511718,14537.753321064794,825.6366823676486,676.2039429476658,3172.6176887501956,2668.7044916691816,8399.334192928425,14662.411935720906,812.0077203371727,697.8193827284744,3159.292752660395,2857.528354263577,8337.008236820217,14610.122282859531,809.7848872683342,652.5514428413167,3183.437865750409,2566.1061136780813,8253.475335704401,14782.774301735539,814.6781947657983,685.0230956543476,3174.815412262808,2670.668075788784,8374.838490401771,14920.594246257742,806.5526393407312,671.1903719189492,3173.4386153763894,2718.462984017142,8394.963472197942,14609.61524083143,817.5986331268854,688.0470853500548,3168.026246279695,2664.2218191057054,8450.892884352974,14834.93296260015,811.0643840281801,700.2201158721153,3174.147882660429,2706.955910561672,8358.718484895064,14664.227632521748,814.2851712996966,671.5109274011148,3167.290122925873,2719.347265183664,8395.266199518795,14749.114803010563,822.223580955171,685.820000099521,3191.84926894197,2828.329035769776,8377.55931590794,14814.644397790336,828.2155579012084,677.1399727757617,3176.447159689682,2799.5652277156596,8454.991152465187,14622.387834297253,798.2571552299398,693.7655776099814,3159.3271764474225
1408.0,4948.0,13352.0,-559.0,718.0,6571.0,1474.4817135064372,4998.924313546409,13400.584514059476,-551.6255805979592,746.8104940925184,6576.789622885956,1338.5507031928976,4987.839927459295,13209.889616640823,-553.014265390787,701.3739688528763,6570.627365092911,1556.5973449357919,4840.592184602104,13432.269228546738,-573.2377662447817,722.2860386649919,6579.653011162604,1393.8343168964902,4874.320455289445,13255.979689439388,-560.5609920400929,701.7417857415501,6581.35586956504,1551.5727416815325,4940.941135469354,13173.603162834766,-555.1899159486462,721.6598047836056,6583.0940681977345,1385.9079745470751,4881.226055548569,13144.044811209467,-555.4726147163884,702.7917054347424,6557.990647768847,1365.6867626279359,4943.657967629819,13306.130571094172,-548.9149217208528,703.5979443462109,6570.680737795946,1036.6423482030127,5026.0023948101725,13237.227821577031,-575.9612690346255,702.4147649843152,6564.9040724585075,1466.7765374695527,4936.314685127889,13405.482117153968,-561.1836811825688,721.2431997203987,6589.263990890361,1456.0343374767226,4987.503354960381,13417.669316176152,-565.6267534151481,725.7702897374477,6579.031583080695,1508.5344230147311,4877.946174187703,13211.937751343929,-543.1416373435054,725.4217148883531,6577.721900046615
3440.0,780.0,15824.0,1999.0,433.0,5371.0,3578.9301299897834,762.7595014725005,15950.405104787096,2005.9652437805105,456.42726927947655,5374.242448276399,3369.2990400790577,794.1675448206781,15970.351660297034,1982.3142778206611,435.12606193139334,5389.086070257691,3505.8475456145748,634.712501047974,15751.049729571392,1982.0197978167569,437.72790123313405,5381.860067683986,3361.7639561548,792.6495717964559,15934.98648053283,1981.766015617751,429.69538932817466,5380.309427813284,3458.4454820607043,920.5511214431607,15613.506931481661,1996.4071590723809,443.1615174995176,5369.341485603327,3413.0064116635167,789.4031520284534,15750.750516785736,1995.52931394608,445.0710767378744,5356.300741607844,3398.083692924705,815.2461459495895,15771.033271175831,2011.303813134839,418.4929196149507,5352.484716432403,3411.53530693026,690.446163729248,15812.293435589812,2001.5777371147938,430.324997310042,5367.738127914057,3414.97966244268,834.592045507066,15850.280313446046,1994.4379032427817,411.68959428613914,5385.529906573499,3472.133154108602,720.8110869696669,15677.58926614308,2001.5020960214024,418.91578432048686,5351.002716960202,3526.026298938816,716.25681976474,15795.300927544673,1988.3629362198863,429.9480787808633,5359.763946986392
3124.0,-1528.0,17376.0,2235.0,1372.0,5514.0,3142.8538318831693,-1675.1606968550748,17343.951646041634,2239.4050306005215,1361.366800977501,5506.466708744369,3181.149861431802,-1623.9710053716697,17438.035723172743,2229.3398833922893,1374.9065366776056,5514.109407939134,3074.0666843663707,-1527.1774724386341,17314.722657825594,2247.948366203559,1372.2430894859096,5513.925243050187,3245.5905084488095,-1604.700123890713,17359.47191610784,2218.5439389690446,1374.6318376581683,5519.295696952299,3065.2006395490625,-1570.0672405398282,17437.545034091534,2228.6201398590315,1374.9790176027273,5514.8749098719545,3223.4326789842053,-1543.2236044862084,17167.77512226,2231.1165319725515,1369.2806241093735,5499.252728373056,2934.2548452788087,-1484.0393341586293,17416.64995749732,2231.2354641846764,1365.3468307111648,5507.201342695028,2924.61118203431,-1643.8293937514495,17403.303445273872,2226.9440684959786,1391.465592900721,5505.463279557338,3153.1753063546766,-1679.6148541213854,17380.964313413333,2229.1854388464567,1366.989651512703,5498.126253913425,3098.786648000964,-1508.7951641035254,17555.690618307493,2237.349542373824,1377.580497007253,5520.261626710384,3146.7750287359654,-1414.6929795920248,17247.0156632638,2249.4189837284694,1375.0360078727413,5530.2407143712
3164.0,900.0,14996.0,1605.0,1169.0,200.0,3190.0212507724054,917.1561754933366,14995.077789074672,1591.606434824947,1173.4762337665722,210.55865919398627,3077.5016549543493,854.3282670950131,15077.361842056123,1599.563110828632,1162.6894333697794,189.6138781105141,3032.70308042413,978.744018243517,14827.018496220899,1593.716907034809,1167.0920176471016,198.50016916458725,3225.6633679337074,992.8594264015338,15094.668485791293,1616.3132010970626,1163.3909112669753,213.15260040831265,3190.4148283763757,1109.1344939565163,15008.734135018592,1618.338235048966,1151.9923081898726,182.68775580577056,3107.663419602766,910.147715257067,15091.99399494525,1603.4847900330244,1153.3334033527162,212.47536625893122,3150.3260747192867,853.8843197524964,14820.61250641675,1609.6999791161709,1170.142896495928,193.0589347458874,3082.556967820052,832.7257837125383,14988.407790510952,1612.3197595524532,1182.5942020659131,213.6423395422567,3160.1320022093155,827.0251238160562,15184.187267830388,1623.327554748982,1176.7570255370927,197.10693394701153,3226.026370342522,788.8177531187237,14891.4196017499,1627.0728940843787,1176.142503828331,197.75062967118052,3042.5273634038526,956.0384885756555,15086.314597138951,1598.6350874011362,1172.6728441906928,210.51704346680543
2192.0,-3040.0,15416.0,3685.0,3329.0,88.0,2193.204894439939,-2948.8894647311567,15515.25868909341,3685.2501940950906,3341.4051654711207,98.7445544589554,2176.670459257067,-3035.63264503991,15642.88930184465,3687.826216733798,3335.1487483394058,75.34936452788673,2166.103926177441,-3188.846028399831,15377.436070433012,3698.9545758201634,3338.609538200748,91.91430955568697,2122.473848119115,-3093.602890373914,15324.866335433673,3683.2778640802817,3344.9131438927534,90.5086885531458,2147.3243480342962,-3079.03332260799,15400.821447746457,3670.4487773213514,3307.5870382009048,77.82472326554375,1974.7854193027383,-3085.3629721503175,15388.821847182346,3690.070912704776,3350.011696372515,78.5285384307758,2159.1862796789414,-2841.550793427517,15396.538003311201,3676.466122171639,3318.6912013865717,93.66223410061434,2193.758528259741,-3143.947917654363,15248.813440632986,3689.1525751263234,3315.93774211882,86.18333473818976,2087.0195026111296,-2924.7718250712433,15334.571433494744,3682.990633910013,3329.86315993792,94.22719927759186,2256.6282591135396,-3165.7161174978814,15345.388198520164,3696.0111909445272,3333.005277848581,110.26785823255972,2144.228191785046,-3048.5010273152484,15351.026474718234,3697.8467294455886,3334.945342905325,73.24398891017876
