IMU1_AccX,IMU1_AccY,IMU1_AccZ,IMU1_GyroX,IMU1_GyroY,IMU1_GyroZ,IMU2_AccX,IMU2_AccY,IMU2_AccZ,IMU2_GyroX,IMU2_GyroY,IMU2_GyroZ,IMU3_AccX,IMU3_AccY,IMU3_AccZ,IMU3_GyroX,IMU3_GyroY,IMU3_GyroZ,IMU4_AccX,IMU4_AccY,IMU4_AccZ,IMU4_GyroX,IMU4_GyroY,IMU4_GyroZ,IMU5_AccX,IMU5_AccY,IMU5_AccZ,IMU5_GyroX,IMU5_GyroY,IMU5_GyroZ,IMU6_AccX,IMU6_AccY,IMU6_AccZ,IMU6_GyroX,IMU6_GyroY,IMU6_GyroZ,IMU7_AccX,IMU7_AccY,IMU7_AccZ,IMU7_GyroX,IMU7_GyroY,IMU7_GyroZ,IMU8_AccX,IMU8_AccY,IMU8_AccZ,IMU8_GyroX,IMU8_GyroY,IMU8_GyroZ,IMU9_AccX,IMU9_AccY,IMU9_AccZ,IMU9_GyroX,IMU9_GyroY,IMU9_GyroZ,IMU10_AccX,IMU10_AccY,IMU10_AccZ,IMU10_GyroX,IMU10_GyroY,IMU10_GyroZ,IMU11_AccX,IMU11_AccY,IMU11_AccZ,IMU11_GyroX,IMU11_GyroY,IMU11_GyroZ,IMU12_AccX,IMU12_AccY,IMU12_AccZ,IMU12_GyroX,IMU12_GyroY,IMU12_GyroZ
2072.0,-480.0,16900.0,1749.0,1341.0,312.0,2037.0419532295223,-365.6305078188507,16895.70663042586,1739.2985916625805,1350.0688475086408,306.1587018776495,2206.4702937363854,-522.4279724451777,16992.38398307404,1743.3871945753715,1315.3703960048933,305.400720612287,2023.0092865447214,-490.7582570210097,16951.04293123632,1758.2346121953485,1342.3664201778304,309.4595760716797,2025.934570957213,-424.46620345856314,16763.523273204708,1748.5849449928169,1344.9618161498759,319.8719407265427,1908.7591929608932,-506.7388675873448,17020.74969389761,1736.7356879912943,1328.9349682863308,316.6791721402815,2211.2468854824833,-483.94563902990336,16698.23548562274,1763.1351710150736,1356.9239729247347,294.86892426308185,2153.109066646107,-382.1616210130198,16861.340621792227,1750.1963211441391,1355.3377463575,282.0522388040958,2025.1392928180114,-414.01219139117,16787.297476585223,1771.507764243322,1331.876731125408,314.0868051149,1899.4239285954986,-351.30741194684776,17019.729201225593,1748.9891245626552,1339.3437326576104,320.66105696465587,2068.4504756365573,-414.8479839100604,16960.67284065882,1744.2500115736743,1325.2913412396128,307.6982525826968,1930.6936264375101,-406.12357781424964,16851.060783827143,1740.5763743323005,1342.6430359897784,298.91423346365923
2024.0,-512.0,16848.0,1706.0,1330.0,319.0,1959.9525766438958,-344.4723212944929,16835.694596413625,1714.0919888848014,1332.0399679482418,329.0535640770122,2102.7762811870393,-345.6584401651331,16703.691452384617,1704.8461564864672,1331.3082866957393,336.9689130486933,1832.6719319064516,-622.2458161221675,16859.815924600283,1697.2788533310013,1329.6407704023493,317.98359516983345,2043.149228236716,-670.783419846516,16758.292511482498,1709.4892137196416,1330.0468828138548,318.3836406562341,2278.6241534107576,-441.86211457107856,16981.522953601,1718.4782369933398,1324.844669512068,329.01918656425755,2149.049842953401,-583.9455446569023,16856.31655067149,1709.090948227458,1330.6092133144289,332.54803037180665,1956.5629510428457,-367.7697038820218,16722.134621228382,1694.2242255261547,1335.0768006977933,312.48067344171886,2092.252714401424,-385.60133151043874,16897.33743390013,1709.7567733485498,1333.2388023308313,317.79744821481444,1856.7109078150904,-439.31317439561917,16802.044648077936,1725.9763840523349,1330.4891203912516,335.301241528023,1919.1219865241653,-657.2060209320786,16873.673435194512,1705.921662005009,1326.5319283152664,317.81558273562774,1917.9593630038105,-568.9585070693965,16906.110980902937,1701.1431303519132,1328.1797387678198,316.0045887496382
2068.0,-508.0,16780.0,1750.0,1357.0,276.0,2094.751831480213,-399.4547679443872,16722.519201742758,1750.7841772837096,1368.367067760224,267.3074272196137,2121.553433609605,-433.3668153970849,16707.541691227998,1755.298050900798,1349.911649497141,280.36766361701666,2228.9781067486097,-547.2515242652066,16781.5250956184,1743.7392171217898,1346.4082533042929,261.950654179558,1770.1870903718097,-452.41096847471215,16906.00205862291,1736.76892878794,1347.7689091187626,283.0112788366361,2092.953018838614,-606.1035301390517,16793.379371601764,1738.2359539614454,1354.5270344029777,287.646313133339,2184.5568854955986,-500.9332750911208,16826.178884004712,1745.0345942474055,1354.3329839879293,273.8292678180464,2024.8936492802702,-584.6665677364227,16917.954413462634,1732.5647738495531,1363.7185236696528,259.6145681340953,2106.376998019611,-882.5439274575709,16623.097961199102,1750.6414876046836,1343.9239784623915,284.91618623263884,1927.266311877808,-325.64133636382104,16929.092490394018,1737.5116200682892,1344.4008413821518,282.85440312967603,1915.1675932243709,-493.23449280905567,16915.742127032194,1747.6999287239723,1357.4563120559342,271.08138567934833,2214.6262318830118,-711.0445363541307,16758.32710782876,1746.9607072888602,1349.986627199932,288.26696503092955
2020.0,-532.0,16788.0,1736.0,1328.0,306.0,2222.2357343848594,-458.3887755470687,16807.336373857626,1731.155361311794,1347.0100938513494,302.5795833304847,1883.5576721888258,-452.5076951996808,16798.94676973912,1713.423996090755,1356.660404149369,314.0255369912428,2116.0682948098497,-609.5741215859854,16754.123460325285,1736.887371315681,1337.4891238704013,294.96234035035195,2066.089773590384,-574.6866258778023,16756.217928597696,1729.3853312262365,1322.8641735551298,304.38370009679534,2013.0183641853582,-460.1477964362556,16758.594191854736,1734.4883460892765,1350.189707014315,300.46541028034216,1969.1652495759258,-278.13509695613936,16866.338596529138,1732.8124277620964,1313.352816609207,305.76209056905856,1908.399281188956,-627.0789650118882,16906.192587118225,1725.8321598918026,1337.8340554073834,311.49056757532753,1908.9473007130168,-486.78658681001366,16967.895965524538,1727.260759950573,1319.820118473341,299.5550040850331,2009.6133024094713,-579.1226289494875,16768.34901423345,1732.300987413748,1325.9878860392234,322.7196613508432,2055.1989586436875,-530.7591115068191,16677.73589174524,1732.1494524834766,1324.7946713920305,317.3505935455114,2009.8215023026175,-177.989113448944,16901.168298221866,1731.95201762873,1311.3036008178706,313.6225435903864
2080.0,-484.0,16824.0,1696.0,1346.0,296.0,2138.341150073496,-557.3668986380723,16928.57180575291,1693.3297584389472,1328.059549771145,295.52788726573704,2141.0640056751504,-505.9317825456609,16728.46988251389,1706.485949107318,1326.947566477172,301.9741377124207,1966.2493831734987,-389.05431980811716,16741.98369875639,1688.0481448650164,1334.8686510172051,314.8185266464397,1968.6435874149463,-603.4446421078186,16824.175532407382,1690.1651010567828,1360.9666545819616,287.0676853795588,2051.4119318612934,-610.5500946808247,16839.354530843444,1694.326754489704,1350.7943285806457,302.75263796101973,2228.987468918077,-376.13264232057776,16813.17889766212,1702.1986045041212,1363.4094335573157,302.341689025682,2043.5152318625308,-582.6708247243959,16750.284788461566,1695.5538701524,1340.243641587245,290.7409476006425,2058.63575672424,-700.6580624869431,16930.899631389544,1694.7246967109043,1351.0223128564219,292.71199554530693,1963.246269049205,-278.63058621121957,16847.61358451411,1703.9141493625182,1339.5487339320916,295.6728407209754,2130.2411151369674,-646.8394205630287,16680.672499644388,1700.9695153858763,1348.8200561625038,285.1950587725635,2065.3775296134227,-414.12498987021166,16710.268407855834,1691.1497460104542,1348.1881631595654,310.0777870119899
2076.0,-476.0,16812.0,1733.0,1365.0,299.0,1991.4425570675273,-368.01714777445784,16523.5142487601,1743.4176570356497,1359.8299362056493,306.97022268416697,1895.0242438775524,-489.4291160203577,16670.05413985894,1724.753454310249,1367.2958291051602,293.9895529691143,2195.6449434130122,-586.2038148672892,16799.271635486068,1735.918956889225,1356.4020532470636,290.01232073329794,2201.5890032649495,-357.85590141941486,16680.71791056128,1737.8673046076103,1372.8634109160055,291.93369313183905,2036.9881763670082,-494.70582743098635,16902.365524699388,1738.2605739593273,1373.9104756830902,292.52685307853204,2201.840475073741,-553.6436351950762,16883.90022180598,1715.9933674917959,1358.2185280813353,291.2333792010303,2166.882064782409,-541.0282644995801,16941.773676887617,1747.9387589511787,1350.851493841968,308.5722570689646,2169.734299131313,-538.6318367233931,16747.52664667358,1721.9456425334236,1352.1415740407356,288.3397776568133,2080.5392527467516,-382.5534403633077,16660.250876314287,1722.8170299521742,1362.5756133968644,290.7589164261459,2112.378509171793,-275.66345000857,16712.933971228358,1725.2989318466698,1358.0662876899082,305.5599120040537,1997.5176294609328,-525.6820294809544,16868.05786234543,1733.993143828549,1359.3721185607699,291.78941857948087
2108.0,-456.0,16824.0,1759.0,1371.0,298.0,2024.0248710529393,-472.0759324212227,16827.62268477836,1742.3636760478323,1383.6127712544119,322.2076292505733,2108.347298518298,-609.9815148413267,16769.064609921566,1757.9091458394548,1368.3610252188273,314.6502791869975,2120.257363947199,-487.8934443188031,16838.923083182945,1760.7326539374733,1356.112911440065,297.3944776805073,1993.6115221143345,-428.082113099104,16684.093150361547,1756.7032426338371,1373.0685871635242,300.09181281849027,2177.5629277272114,-415.2183592884234,16775.951413411905,1770.4673243673149,1370.1639610960224,306.3430439459477,2089.7442035126305,-333.35216467825944,16800.704543183776,1753.780500492334,1349.0714258850887,300.96421631103766,2212.576406373276,-516.7901570251792,16833.09945270396,1761.2509893538902,1364.5509218535767,321.23880079853564,2122.473548173466,-425.76065626507517,16857.060976960074,1772.8637120528595,1380.8860549952315,298.24324232202906,2141.5882210976756,-411.0960032141008,16835.519113930997,1770.2464474377923,1375.9639474190878,300.8446493640494,2162.3059325549716,-576.0843796223506,16971.87637164815,1754.7755971872532,1375.5868727347577,285.22868676667554,2231.1386138547723,-632.4324070203255,16837.754003799404,1748.3506774542184,1361.4622680311165,308.4459754222109
2016.0,-460.0,16944.0,1783.0,1361.0,312.0,2075.532928203015,-586.5064535596595,16939.730012163396,1785.3642048268273,1362.0779493897057,309.1230919743842,2029.1844468563884,-406.6419509553602,16920.624105077808,1785.6451590701154,1359.0845692661965,316.97601943623096,1935.0437044732882,-330.6598299550969,16804.16153563267,1773.5445213997252,1338.5446021106245,299.3555428671166,1884.675489721475,-452.8078575256487,16857.664610263997,1786.0596680975095,1353.1171401437641,301.5071692032956,2034.5362819267723,-453.527843359082,17026.838969756114,1798.2118886008752,1375.0243331244355,298.71985177388547,1963.6472027895197,-641.825281073826,16856.108587819945,1779.598707707467,1346.7868637131867,303.27194549479725,1899.2425745494374,-484.39367025072016,16973.86742310162,1774.479601190523,1361.1806110757323,330.59656141241805,1990.6298176446812,-440.6460634735214,16816.78009068105,1793.884077509565,1373.5118784021686,318.916931931324,2007.8012183949666,-671.7805160792498,16848.21873876059,1801.5671669197664,1381.1497040554436,290.43234027045474,2000.8820897821997,-474.91397801305516,16741.29947509751,1774.8367038705123,1369.5307920853736,303.6046311902053,1875.6599355295266,-221.1772151087463,16836.68340430586,1788.2350038134302,1363.0555256843973,309.1814781793246
4484.0,1308.0,11940.0,4231.0,2527.0,733.0,4277.33318188604,1303.868431117164,11855.689075574806,4226.369252280056,2525.0657915960237,726.5611511188936,4367.05716521994,1278.9973567390557,11729.494791726158,4230.4500915481985,2531.5490613807965,719.343257741273,4454.922357766915,1266.0281818845117,12166.978086944322,4216.845568630503,2526.943843311995,742.9755467996116,4367.505618656305,1406.1813255999944,12100.049294159311,4237.692966316396,2513.3810177964556,717.4611998961988,4572.731466107365,1307.1886651741993,11978.528884625774,4227.55325593689,2528.287661927257,743.3076588007758,4441.6790071370115,1298.9163529837833,12015.335822538016,4231.10430469297,2516.7145152069484,719.3279608343867,4633.97775993734,1485.5444213986495,11866.493571602623,4233.328306941519,2519.638205807509,745.965387958965,4633.782739450361,1272.0324206507094,11885.09835025364,4241.354009003096,2535.8283176708983,749.7610129247454,4582.99366798192,1257.8898139719845,11922.424201083846,4235.948168708654,2534.332116848829,721.9998323309648,4419.430271115371,1084.200796940249,12021.075149623995,4232.219903442671,2522.0520805586493,734.7476823054885,4440.07344398283,1286.2469973525112,11876.302053667248,4230.0211878030805,2545.386822820116,750.234260714893
656.0,340.0,17712.0,4122.0,3752.0,-2886.0,596.5992486820613,503.1077177926691,17660.933822976454,4128.062063287216,3745.788165638735,-2894.074223539339,632.0782322510174,187.16046611380366,17780.384497688392,4134.885650550774,3746.8427698721944,-2884.823776437184,575.2134960720254,420.92717836026475,17574.602750926086,4119.005193636911,3756.209597709915,-2892.081622406363,679.5424805063252,332.6731117405359,17577.841811901715,4127.995570290427,3763.2754480414374,-2883.505696292802,649.9879409323506,356.25590609503996,17462.866331373043,4133.2868728430385,3738.3544848259935,-2882.2615937136893,649.4489201022801,324.7982067626266,17642.74144158081,4112.5067623714685,3745.867918983622,-2891.899219696438,670.0198788313763,490.6269800882784,17800.113057603492,4118.453642475379,3765.788475036851,-2868.115254567788,599.9413080526111,501.53941471142844,17792.223083073084,4123.868902823182,3762.0949851901332,-2876.2855164699854,671.4649351022073,198.83872691265154,17853.429989384327,4122.053037124739,3742.3304534820136,-2896.77739494003,574.2811139609353,256.9373480631924,17759.297069536173,4121.161294019877,3757.2422586868406,-2877.5449085043147,753.403062320471,355.5541332573688,17614.52017839245,4124.877374020095,3769.4036587064606,-2897.363480341143
2280.0,120.0,16532.0,350.0,639.0,1397.0,2449.889312004469,255.85866718704796,16428.539933830794,334.19282094061845,636.4630493839253,1387.9021458700693,2239.136256050503,319.55368789772524,16525.050435892,369.1178564523289,636.762760645317,1402.4945575063543,2213.9028448929903,-45.566133642125834,16536.03082054674,338.27774420802035,642.9691701621567,1394.716499322233,2259.6428451344063,155.88945083382288,16374.931656871313,336.1241190866111,636.8340705705699,1409.9630318490927,2172.9410171804407,71.8382110025749,16536.932432345446,340.95794051848384,646.7623188825869,1394.436420022477,2361.409993086283,198.10334471552943,16539.1434511701,348.5370232876453,632.0396219480051,1383.298462081709,2291.780626681172,100.43857990839939,16499.331008617875,353.9686642340827,631.3448806381934,1400.4935063528926,2362.408263098507,312.75884546502175,16386.04657551392,345.2130322444103,623.8073581179463,1397.281381198954,2171.41077129187,160.11954492484128,16507.19637894678,347.4425572704905,642.3624860750535,1402.4450067940757,2331.654312589691,-152.09147719750757,16445.438059698106,371.3419930283096,625.3937907925676,1402.4847475446209,2436.196680884076,129.1043800059826,16635.85321117734,327.5629732144971,631.0695938144768,1391.243173511613
3108.0,8.0,15688.0,3588.0,1932.0,-125.0,3042.3970512393144,-138.6807338277578,15633.835865007559,3600.8883183675575,1925.8386328815968,-124.56656081027796,3166.7058522449156,120.28664322845714,15617.46200448543,3595.905304265654,1926.6753483459174,-125.51851990206626,3020.3934185844764,-29.42517590476075,15722.816370971454,3592.403471079516,1931.7606685107414,-127.09766962428192,3224.6790524407475,145.1638388629343,15819.448102607555,3595.1099628896886,1934.808816853096,-125.11920515888963,3149.547295134029,225.04664612546503,15737.257235933888,3588.8983825948294,1927.2451679020337,-125.88921370646476,3046.1994192035822,-160.6861141219052,15677.83639990538,3600.9090899425782,1946.0822479281733,-143.23352219641257,3087.3473588719116,72.94897974944223,15700.239053860249,3580.249329539575,1936.0545207770263,-124.26275041448487,3317.9133780510797,-81.17827847690981,15600.725804428093,3596.578234937217,1943.0550497429601,-123.66601533201292,2884.771098477719,38.57791494838973,15782.55319241507,3600.388067758947,1935.1866906930688,-119.65659253867216,3217.1230792010897,59.38739043795278,15664.55593590924,3579.068658813622,1937.2133366147357,-123.17324654021186,3041.092583899876,-140.12836837507777,15910.099019619747,3592.9431138590962,1929.5836374900491,-132.34024393383555
1864.0,-644.0,16736.0,2287.0,1527.0,236.0,2027.383144858721,-567.1168814217859,16670.00685849672,2303.632543160252,1514.4656259582782,229.12773776322996,1900.015065327104,-628.7055880196727,16764.107395433228,2288.165738182526,1531.2161889875847,232.02628809570697,1805.120298742596,-630.0071571327624,16659.52943672224,2281.371329486153,1522.6833884516839,232.6811916764324,1829.3951648480638,-631.4920991043966,16493.516584426066,2293.858591081201,1516.7502801625442,248.3418757957353,1832.8499389938247,-562.5723233021052,16828.994084094607,2287.802306631823,1530.1986525625628,251.05951522199447,1955.3112487073627,-728.0690498426281,16744.911050949308,2300.362121059836,1529.1682615032994,222.89484014257692,1764.0038341452237,-392.7970216538071,16648.55611708081,2284.4594379497626,1527.9806302053673,240.7946808281691,1835.5573200978088,-533.9801428048992,16705.82890721382,2297.496060576006,1520.8357105504526,235.33683554582308,1790.5282146025052,-789.9112338651663,16740.561281981438,2284.126328537261,1524.5095576595559,233.07252574835968,1919.3960818774028,-525.1738844863869,16776.908072205668,2309.2935676032394,1521.2560169811993,237.71443543875682,1783.3218975908405,-818.654321344708,16532.137520447624,2286.692086692669,1528.2244662267371,238.4622856497214
1360.0,2468.0,16552.0,-7582.0,-2488.0,1330.0,1322.6236764038579,2394.7783502156353,16749.230380043664,-7568.925567064945,-2509.7924729369606,1335.4675936917804,1487.5577354568159,2274.453187879167,16508.49301165074,-7590.815062937226,-2501.7145111748673,1335.2446321257457,1622.9170963417787,2502.2853338483355,16474.45852083728,-7587.318104379751,-2482.356535806093,1321.9226119913665,1383.9532026321056,2616.2291937641266,16524.585895802873,-7583.320137811781,-2483.378400248076,1325.9142194139893,1406.5096828703574,2525.322822460511,16479.356521719812,-7569.184738629294,-2495.7733473659523,1324.4797878310726,1473.2725405672793,2383.9915792699753,16521.754474275254,-7581.469702124387,-2490.3254542238587,1345.5272909385326,1261.3924151886658,2562.692164281317,16668.134731059265,-7575.3443411081635,-2481.4004992330556,1313.3835189754836,1426.4255710677983,2459.5266551935943,16438.80286188384,-7566.676794335595,-2487.3653709044997,1344.8682060086771,1479.3425598291913,2391.8248024736577,16435.741851110914,-7584.732890207903,-2498.4611825157444,1321.697384398922,1441.131248532169,2610.193928109679,16492.487857093,-7575.995753102675,-2486.027583819844,1342.166089522071,1111.4594294590097,2309.7759338258948,16667.065290756706,-7591.135257124802,-2516.398272136751,1331.7417642002856
2028.0,-1284.0,14424.0,209.0,615.0,1822.0,2070.788430609732,-1469.7486299830246,14344.187065060765,215.20439540095512,622.8580437981434,1814.336245294982,2222.0902912619263,-1446.767696224283,14421.508615408495,202.69242937841295,620.4407377179572,1809.332153213282,2069.500892034468,-1281.943691199687,14267.542662702768,183.92382950274322,611.9062011262356,1828.957545800383,2192.086628393983,-1378.029724327998,14493.208223194819,198.33678275413607,613.0535143841107,1813.2452621240639,1848.4607495802788,-1413.0640353229699,14532.203412034045,206.90235381704855,598.515080122255,1833.936706508365,1870.7297966320555,-1225.2100134183393,14397.26989046288,209.43644403654514,613.5721135080096,1827.0261521378316,2078.741219401828,-1263.1903619934583,14382.805492319503,207.68760511620042,611.2413235689035,1822.5897648023517,1908.798324432287,-1213.0958721865231,14484.708509888587,214.34571131446273,625.4289351330214,1825.206696541027,1875.2073160732248,-1245.5550087045683,14358.477090017434,205.62288927560678,619.3571004601226,1824.3717618381072,1990.0822785671267,-1463.635574858189,14379.929337024798,206.2195767027867,609.4241414203565,1814.3634984825717,2022.5147159557985,-1355.886053598874,14560.345200985352,220.75872386258092,617.0539101074029,1827.8666434559395
600.0,-1616.0,17896.0,2273.0,1354.0,-826.0,574.5881833367596,-1599.0842659283753,17814.155120805586,2262.487959793669,1364.4064401933017,-837.9340485987456,624.8150054453802,-1693.6675427042046,17908.75103468159,2262.3144062020306,1376.3135527429213,-818.5519067969593,551.1165781397891,-1575.0867310030403,17724.416121493985,2269.780868066675,1357.3530184304313,-826.2127338678818,574.199511599076,-1574.6324318712632,17680.05427297773,2275.084125570244,1352.5806379628946,-831.5529753641479,651.7444159736733,-1703.4154104931442,17760.06081838074,2272.0406637682163,1361.478012043423,-838.5328726126558,660.4412802986327,-1537.2998201047712,18103.663608621253,2269.7438367060495,1347.001284862792,-826.5484153354671,554.6796668925207,-1456.5744910294766,17980.512837612903,2264.984702316753,1347.5823683252838,-827.7858130354554,764.2588808207822,-1434.2621732238204,18001.152728565605,2265.1746182310208,1334.8096401652833,-835.8267995395161,502.4976177746221,-1707.317183335913,17916.67477394562,2271.1644511453783,1345.1135356559691,-827.1316223158365,525.629064597172,-1801.0998962653887,17781.468406836364,2262.435722020285,1358.081044961485,-809.2623134414737,641.3853081046004,-1762.6952294870857,17892.296976368452,2272.7040403369383,1356.7918649003345,-827.7011321784909
3160.0,-2196.0,16172.0,112.0,1057.0,-2448.0,3196.476324978435,-2279.3948419832086,16214.228531452034,120.13249355146331,1060.2204092556258,-2441.956265440028,3145.307963990199,-2261.488111657891,16069.523399817013,105.94216176621417,1063.6630273909614,-2438.346142631008,3122.1224662850645,-2168.300116015603,16253.31349893812,94.60020657154858,1050.557539813071,-2458.3850286017073,3057.10333535008,-2114.754747921037,16155.75482636017,111.35287255750292,1052.596585444782,-2454.6608980074448,3016.5859408148085,-2303.0371063649513,16273.09161037461,101.68422012800588,1073.3529846344002,-2434.2075108375357,2986.2868067945096,-2098.021362825389,16200.215200483244,124.8147866604887,1041.9732293680815,-2438.7955727209524,3038.63268753643,-2102.9755913090667,16125.120063713768,97.8335703192582,1051.7787521179757,-2451.040814457683,3076.0621950532404,-2141.1414462478647,16252.866344387081,110.41268696336886,1070.0558471572112,-2459.4510356141573,3176.2270394573466,-2156.615817120719,16249.81833303936,107.47125987889456,1073.3357758172829,-2434.4592188331467,3206.4043251722655,-2251.917582476962,16161.725076384088,119.03814949369588,1046.0933489667757,-2473.213917385662,3148.784155710059,-2162.2999486455187,16180.99018282689,111.94727117732316,1046.7940888092696,-2455.9891231061433
3592.0,-1008.0,16028.0,1996.0,1575.0,-1958.0,3703.4870669980555,-1088.938658395538,15950.788845163366,1995.525516928911,1589.3607510927548,-1943.4271227961947,3654.295104021101,-866.0401671967485,15919.091215042654,1995.334796759472,1565.2187295785,-1945.2461848739692,3344.7737811396014,-1153.0878577946494,16130.120490851017,1995.783495495745,1567.007492837614,-1974.0525880530354,3677.43798984868,-1003.7615498340696,16003.050442959091,1974.66748229967,1555.271094223248,-1971.9553295469977,3654.199008192501,-1055.5500781294431,16084.831109433655,1989.3802125679713,1582.3498188164276,-1971.1842697910874,3685.834841228195,-975.2799790964997,16012.362416782213,1985.7649093505643,1567.6499765150613,-1976.1030718177765,3506.957558763091,-1125.8387290323442,16070.847771332083,2002.0227553019768,1571.5272783668051,-1950.5947448432928,3451.1822301521556,-936.6420277943621,16126.494581022274,2001.1177695688295,1589.3675626943284,-1959.6113640904932,3651.478771911338,-992.3263973067512,16037.412381131797,1998.09286288242,1575.1908780662395,-1959.4617615339098,3636.0735892353396,-954.0060032469089,15964.561276555398,1980.7753002802203,1576.6621562465095,-1947.9109086086921,3698.5797199047834,-1006.9093280634428,15961.79057629518,1991.888419800531,1578.578337678724,-1961.2568056344169
1836.0,1404.0,17228.0,2039.0,1600.0,-65.0,1675.2903570183535,1419.5938210427291,17240.348425647575,2040.1792338071593,1587.8045123437487,-73.99626274090247,1745.152392797362,1322.7484132262734,17002.338619871403,2037.110205444361,1591.8491425485884,-52.06018963905976,1900.1622137705813,1367.3299181445732,17051.364257221867,2040.602477675157,1594.5562352458355,-52.75854520387929,1880.274698987801,1354.6563191016012,17055.02811855507,2051.145981262853,1594.3719460900961,-59.07627370886065,1661.6316294419985,1433.4595795609332,17129.61913988883,2041.9986120213089,1595.1456810497937,-71.04545887216322,1775.42362167443,1378.5019233479304,17309.383824572884,2048.954321949024,1595.6848190893013,-63.11231047272382,1867.3294648240121,1550.7617025726408,17227.92951442235,2048.475251150684,1607.1283836766654,-67.35388954310345,1906.8084354001637,1461.5914567848517,17223.78014532676,2044.20463821598,1598.9512872084324,-71.52483693866435,1815.097572702537,1576.0267798414197,17451.560719532143,2041.1064660762786,1597.2287082510304,-80.54955881503996,1745.1205329776112,1544.1962685412145,17149.824432411035,2018.6020978186307,1593.6734636495805,-67.1576121827893,1685.6218946007575,1452.443602042982,17266.731825401628,2034.061766180015,1609.5771666515566,-56.7208917331905
2304.0,1864.0,14288.0,4158.0,2240.0,952.0,2336.069860920678,1995.771810877546,14288.251537894514,4171.067679341969,2238.6576145310014,945.0846147480348,2296.9329527675186,1940.873425737524,14270.066057847134,4128.264494434692,2241.06682001788,948.693942999367,2408.5603697020056,1987.8245632232424,14104.604316616742,4178.338545136865,2247.8888233007037,951.0238339485185,2245.6606646517184,2040.8377544790694,14270.070964131652,4175.45219084803,2237.0367508864724,941.894670180048,2339.904690484118,1834.6657585333608,14269.335190961723,4170.821088050257,2246.612262216921,945.7246158386628,2361.1448707337954,1722.1989198527697,14297.265891736099,4156.787748139356,2259.6651103330746,941.5359119364156,2376.787072315684,2085.5391751011293,14193.940207411752,4140.449792644341,2241.573177089764,966.6193337811982,2361.6403266516563,1973.9139893598722,14305.118024425761,4153.181045847289,2232.7946812231867,968.4735716285081,2272.0160779485445,1935.9600438184546,14204.354933467963,4158.701807431454,2247.3705964966593,947.0599247170766,2134.6506308956527,1680.7541223201933,14179.747328274178,4162.254845619411,2244.2928071918263,963.1612272977135,2194.5193106013285,1876.2121096642684,14204.628417693062,4155.684553973408,2243.35681032896,946.5703928583807
1068.0,-304.0,20812.0,1830.0,1095.0,1440.0,971.1372240104154,-359.68100965797396,20945.91035600872,1824.1385806295898,1103.4492587802265,1449.9135955477727,1015.4865358706732,-226.0855331724037,20710.625737441325,1822.3759119541778,1079.4771622872572,1431.4095165874642,1134.4490483255927,-196.79872894676618,20924.20899294654,1838.85510317397,1092.7521002191468,1436.5607880463724,1136.3496934781006,-387.2524271443277,20698.529587601697,1825.8352450295333,1094.5149721081284,1436.7772782006655,1151.7699001127878,-285.57326106477586,20874.66863585402,1841.9169699225477,1086.5407342574981,1431.7902737493037,1081.3222807493166,-276.8892344313832,20812.42775805876,1842.6837652300635,1092.3140975130998,1445.8951052133937,1046.053659629389,-562.1360161375841,20878.048102145192,1824.8424828955644,1113.7338020955358,1457.1452092466448,1169.2606307545416,-454.93426686968337,20777.873179218885,1816.288517910935,1087.318870558841,1446.6190823367904,983.748404443358,-135.07122695014098,20832.354278694056,1833.579699569292,1094.0100870719236,1444.4437877950543,1160.3205375735297,-425.2722278869785,20922.947660043534,1838.3996973139479,1095.0706579456582,1427.2282240684654,975.6055626474686,-303.95879994792995,20697.497935694293,1828.2045232367184,1097.7598654657443,1443.4571953477725
2860.0,44.0,16056.0,370.0,437.0,2976.0,2740.3037948524593,-180.14667944802878,16067.746160296234,369.34759200012013,454.712534269029,2986.7922462665333,2909.088891335179,-156.36901413003469,16134.248398980752,370.11409024259996,435.4485332722114,2969.2797922107006,2958.690120653201,15.371437477310906,15950.428871719996,373.0133530456019,406.45327480639685,2981.7520884434543,2753.0282645837874,-40.3623256766373,16218.919602399003,377.51106120126997,423.2058613125239,2985.3068885258704,2955.919525830661,92.61633526963097,15896.7096292532,366.9954522512661,441.093881270905,2973.514569483197,2923.000220289449,11.433281741818938,15896.088292481803,379.1906307033671,435.3330951053461,2978.6455720199665,2900.909662430268,115.71957918997165,16347.433616947927,368.08469924175085,442.26651756343415,2981.3233163357727,2864.380644626602,117.58012538007411,16034.67098877182,375.4116815230881,452.48622673039705,2974.3451705187226,2865.4507210910733,-25.334583863771883,16042.531301165485,360.0277512491438,436.3456284051797,2980.956230271778,2955.2366948915983,150.3259231673752,16187.065805663347,383.17869617581925,447.90689347594343,2973.9536079553945,2748.8863053868117,-31.3332232246469,16052.73941454126,378.3723476976264,431.85598410007447,2961.4371956972727
2188.0,-2388.0,16720.0,1716.0,1114.0,2239.0,2240.35354350939,-2526.925147429456,16653.75812977983,1714.6708441530484,1105.8184516439276,2235.194877203295,2437.515747532269,-2506.7145035571666,16651.316879627997,1717.9754125233912,1111.0133680246831,2236.1451865263602,2336.459069489437,-2439.943738976181,16709.589949456345,1711.5959722374714,1105.8409489682974,2234.960050946352,2103.091910141769,-2538.6174680726035,16673.83405813085,1734.5203310404447,1104.7548942489902,2255.56616817474,2186.2172304152937,-2275.2696814203214,16796.581722510728,1719.1477408822311,1107.4858920228517,2236.854949509171,2215.3245650396057,-2402.569606614364,16848.462392459547,1706.4030214587854,1132.0929443506834,2229.909349078592,2327.443171092284,-2379.5697396888927,16814.606896635916,1722.9241266511485,1111.6397915209654,2238.143823669216,2096.265981409833,-2286.6629919524244,16735.542267404096,1714.3776144684336,1111.084432183187,2230.5052318607973,2298.3342838606072,-2266.064889323091,16645.054955137628,1706.0399431677727,1124.586063793149,2256.3822745521707,2165.9836377541687,-2244.618979174947,16739.947625589455,1723.1493518006182,1109.5248668232002,2246.5074338588192,2322.3864550075364,-2306.376503871871,16921.232761416748,1709.1905900566594,1108.6763001338627,2245.6879355068245
736.0,-1524.0,17588.0,3247.0,1978.0,-1478.0,801.0461314644592,-1703.5017233516928,17654.72889263982,3248.2054837669984,1973.058628710874,-1479.0995544861037,767.2784012596994,-1767.7156520827466,17661.71893418653,3237.049975350549,1973.0855494619748,-1467.1469693248016,688.248509148725,-1507.0574894587633,17733.32624733166,3260.089306661774,1970.255515525662,-1482.4112784991435,711.913956236354,-1460.4361012268103,17609.66174504876,3244.291487193063,1985.7186418670499,-1465.3344875961157,942.1001512318657,-1383.457466391287,17706.35042024898,3242.8411379957774,1970.2273611962908,-1504.8615418242832,799.0753224771922,-1446.2442130641996,17672.284745301415,3240.241914548375,1957.3047987341736,-1475.8994477392266,760.0832207208578,-1629.9079571538007,17608.51373198781,3235.4557960536977,1966.3207207329458,-1480.3215421239297,624.2734414230467,-1426.5858072808471,17408.670994537726,3262.727394507994,1984.7894772989005,-1472.1799624439307,702.7914958859202,-1313.5439395168435,17639.113859220965,3248.3157044446657,1982.8927649475497,-1474.0578396118242,801.7935772667073,-1513.6504192872192,17454.82916374192,3264.917177437163,1968.00881027532,-1472.264633229014,716.7396641694429,-1485.7939326674834,17577.950902500863,3253.097472143859,1971.770836313909,-1471.3560100607722
2136.0,308.0,16696.0,2641.0,1721.0,620.0,2143.771949596946,326.4593026002409,16643.20180334085,2646.1518961590955,1738.4048121222554,618.0274563186354,1928.560726008832,329.7373447214133,16569.99288440052,2637.0676113331015,1708.5473773886636,621.1710913521878,2252.029390933458,345.2590356201987,16730.91347253768,2642.1349727215324,1717.4527843783808,616.0471623219631,2310.0443647859584,295.6488013665932,16671.447649879792,2637.3551967857848,1715.2020079849485,622.070884785489,2233.46934827353,330.32740659284036,16558.371641838137,2644.376649497838,1718.621852931251,644.5642461848146,2064.6328145718603,620.4691919400098,16606.423629033077,2649.785984830297,1732.1287480262952,597.944204642178,2102.988697770062,159.99845850496814,16694.979823528243,2643.3410237884104,1731.8117385004607,622.2243731734765,2205.615838083864,273.2797269568083,16791.222318514683,2645.5335768421005,1736.2443401214064,615.8095265708038,2199.0628579238655,402.904882645522,16684.87559850797,2631.115653198575,1741.2993749201394,614.7625095499667,2162.3573269078424,271.0231835663956,16642.579127764555,2644.3954000749713,1725.8095951072944,625.2570306082072,1978.176161209225,279.8971182812554,16641.043377064467,2642.2877333456627,1716.8858009250284,614.9702792258427
4824.0,-4.0,16124.0,1936.0,1175.0,2732.0,4869.84963583074,60.05656375391844,16061.891677365289,1931.4646768302898,1172.5092021153318,2710.472329969283,4746.899321082643,51.37316035223877,16140.441564305784,1952.6467204619585,1168.416143992059,2742.192409299701,4755.228580921378,135.93944929109915,16126.417952838185,1927.0672014104312,1157.1428375679372,2733.292126820294,4874.377786910939,6.904759530692907,16008.463794892568,1953.3085498549133,1182.2150413523677,2724.846765206287,4819.13652408823,184.09731725992685,16241.865980099761,1934.7684211956262,1163.7278498051132,2731.6334190137086,4607.993466114535,49.70858359340058,16078.663661963208,1928.69752923541,1152.9777617848329,2748.870097802461,4895.811338959626,-257.41314659508225,16146.952139368546,1938.7929086642334,1181.5353782148868,2745.8782694295073,5023.280961483042,173.0741600908738,16192.040691376431,1938.5272726855767,1180.2428953629421,2724.952742312619,4799.761324179144,194.2646553109108,16109.53075004944,1954.838543634643,1178.2296392351202,2735.6266989156006,4727.87635593048,58.214345999406405,16100.932275819243,1947.0189660918484,1167.2058169339023,2723.088820293237,4677.262351421924,33.063963973357254,16087.368137694775,1954.0327892067464,1182.5730197922828,2747.4291528003628
2028.0,-1408.0,16796.0,1052.0,604.0,2920.0,1776.1063740840389,-1580.7283050991905,16722.190683155713,1075.880933635909,590.2273455123076,2912.7947734676227,1846.5022058811624,-1484.5881373241132,16829.711213063703,1044.8209831142217,626.5512841132601,2919.373581835237,1994.9747029731955,-1361.3360911165025,16892.6430877032,1038.0030136322766,599.9811184319523,2918.9915891858072,2160.2592211166707,-1505.7433953830516,16562.153575242217,1055.3918297158216,607.5696143814869,2903.220355655888,2114.1685399797298,-1431.2620483100957,16824.29713135557,1066.960119112401,597.2093248383413,2919.647934251339,1911.8707145881299,-1395.9008690046578,16921.4231694176,1067.4602883988482,603.8675718390418,2898.737263029225,2073.0882357378723,-1391.6343040765682,16576.49136997581,1070.643207615756,600.5872170765227,2924.4578073349458,2201.848058618326,-1378.236540514753,16667.21609769426,1051.2445155714518,590.7452565995391,2943.947033554757,1816.9266843612572,-1721.508799177288,16936.366486806346,1042.3159105643017,589.368493024399,2909.7425453852784,2121.8697959858805,-1548.6971284986344,16858.93150622965,1032.7348233439986,611.5325932718536,2914.7804683437635,2206.1065339922316,-1254.8174689330046,16916.95761578598,1053.435190619933,604.5113225472066,2925.2487095376996
1684.0,-1304.0,16984.0,2190.0,1449.0,1087.0,1863.6214310393104,-1361.9890086776068,17005.860399533067,2204.3648447576343,1442.4042100097417,1098.3995745791196,1550.1839479021692,-1152.270813638218,16904.26501045796,2195.813023285071,1448.2590425679539,1088.7954058100752,1642.6615230328111,-1345.5250501195474,16956.49088769298,2191.142727751914,1438.054973421097,1081.9686748710358,1741.8810657919616,-1326.3652012476753,16893.8754828648,2184.682380225644,1439.3461744864087,1087.3479641174895,1734.668051561614,-1328.6518572609214,16868.820886166675,2201.3716867746607,1442.9136567992396,1089.0185717464783,1561.6902694634641,-1334.5783070385885,16906.4626843508,2174.4996423716266,1449.5429165091723,1083.7120351886838,1680.7352747215805,-1394.4083728871983,16889.894996239593,2192.9602538156396,1443.096227938838,1097.3745918813463,1884.4873956825527,-1185.9677559344896,17062.542988928322,2179.1012949376604,1441.186056764256,1092.746014175325,1650.1627593051576,-1222.5660511556212,16944.56065519464,2182.316785174857,1453.9286849450825,1098.0986961567562,1723.2224023864605,-1291.7922508091892,16952.836277919396,2179.680858110578,1442.7148029928583,1090.9805983027998,1479.78689508596,-1483.0893554495344,17153.987176599796,2173.9094091930992,1456.2133018180737,1100.995380089736
2564.0,2052.0,17516.0,1462.0,632.0,2775.0,2578.6093141188917,2141.977855981849,17454.531416854974,1441.1442669248258,646.1960585314062,2760.718675723429,2554.4477512586695,2117.8658630361037,17583.49108559992,1461.7658064515967,651.4311855483483,2776.4611791247353,2511.6431233603366,2040.4011882972197,17595.964949878504,1451.6247216083264,623.0156070952878,2769.1080727225067,2482.1304276342653,2065.5798006191694,17674.776334548016,1448.03088555029,636.4076961688186,2781.977250606255,2537.3948104512992,1984.767100811087,17382.361907952647,1445.9005698952217,630.2478867886662,2766.2770454318666,2548.478090803359,1950.6587256624537,17596.606539278964,1453.9213888976833,639.7277589904298,2775.2114478774074,2438.019156051392,1927.084705333986,17393.47475815906,1461.6886189637762,632.7782606972105,2793.279554409723,2525.2015508514833,1974.91390017005,17247.313202493802,1464.1199625575355,617.6109840686308,2771.1244305057385,2716.6293376186977,2019.252927119184,17556.819063055213,1478.3268416051926,641.0857004089653,2802.982840253129,2536.953180907188,2028.0965029423292,17597.616644400405,1453.0860300238176,646.2715355431051,2776.277797962411,2531.4690390718806,2033.1352481947513,17617.610883084504,1466.0077123742496,633.5291489547186,2773.1028546031807
2228.0,2188.0,17080.0,846.0,550.0,5514.0,2244.327676875248,2205.8756392777136,17073.873895003922,837.9757974820631,533.3607761615069,5510.018350886369,2286.2838837509444,2269.8002220619487,17074.481742445685,838.5359969897522,550.2540032558176,5500.459628083337,2087.6442882805204,2328.408020995103,17206.25742553483,854.5618213049516,548.0877555976169,5502.041593099269,2377.2736311713793,2436.16290222968,17078.57459554515,838.8881118905728,564.5503576816063,5517.046576455849,2093.6865692308893,1962.4406502318384,17266.73161418368,826.3743364181267,552.3880364111517,5492.026325683664,2189.84493791288,2087.6213535374477,17117.82987395233,849.5353077953841,567.7555247184894,5519.825900894655,2113.836556451881,2189.5480569254937,17020.310452256428,863.6033532033587,550.5993085659426,5509.147938981491,2037.9352476049612,2194.4570005792684,17203.89286492616,842.1859623720483,541.8123973674005,5530.774264990976,2070.0215452092866,2112.173278621978,17239.14970876499,856.0471157885343,538.2456306845895,5523.743569853127,2303.217408698337,2166.3457384781964,17071.563749266286,852.4845288006011,553.0058322349684,5518.581854657921,2180.8261795527314,2163.898606562897,16983.47287004652,844.6759944032736,537.7863734798826,5508.8137818698015
672.0,-468.0,16408.0,-610.0,1276.0,5201.0,599.4097441942882,-333.0569248099115,16491.731150089683,-606.6294228608492,1258.5507953154645,5197.12784569592,544.0525345289016,-417.0859903264217,16545.316032258335,-603.0053915079277,1290.6093359596136,5199.459721327063,635.1797989100285,-579.1412887696694,16424.502568562988,-609.4706488376634,1259.498820216777,5201.280831422583,703.5304050268181,-507.9311551330476,16573.17154278912,-593.8621429806359,1277.7753514124963,5193.330173830389,601.8893752615361,-486.50377868362386,16295.95051848269,-615.1909923074207,1280.455921943396,5215.552997669511,566.4407661369324,-537.6732194776897,16378.944912437983,-606.9764773280684,1285.2174494568314,5207.607166624956,650.8810728977709,-574.4001092217744,16340.05379888469,-628.9669234010132,1294.9372756733756,5195.659280968054,697.5675445377502,-409.46239143545915,16475.033704587688,-607.8703837822719,1255.2374443860228,5189.343717762206,735.9969678637055,-470.65397979690346,16346.925690253103,-618.2488127787994,1265.6149029818312,5196.523869155613,566.4919591423601,-339.03561147519633,16553.13381832287,-610.969499038557,1270.3927739483727,5198.726005235099,597.7848931804074,-603.1416480391001,16365.918587160522,-607.0960155218227,1280.3277797215812,5189.381682953211
3432.0,-512.0,17368.0,-3665.0,1601.0,1958.0,3498.3335993973965,-473.54600868093684,17497.108057878017,-3669.6201785695002,1598.158134862764,1966.155243776655,3447.9236953065865,-746.6384575676824,17367.434874541534,-3666.3838293271074,1596.0390000486432,1962.319940445167,3496.994683793135,-430.91312838839406,17272.786550556164,-3675.008156755076,1603.354592754157,1967.4819660488754,3315.398522426138,-487.2075472079132,17365.757910833523,-3655.376085136102,1618.7095585448142,1948.8975668979551,3609.777707567247,-406.12181178672387,17408.27523882861,-3644.9084354165875,1601.1706805004544,1956.5880552057413,3626.388091999356,-608.7241918653003,17305.367782053356,-3658.885185782195,1600.6657284765647,1949.675326940997,3583.03371926335,-509.3951730544273,17359.212625312986,-3671.665685817436,1603.0814442893466,1965.5767546416184,3461.2913228386133,-398.65041919198404,17316.376565875475,-3661.3255736254087,1590.9857962501171,1960.6001374989405,3476.8597931598456,-662.0074012140437,17389.682236021556,-3667.9033068749586,1594.0883068646856,1966.6123326217087,3540.2572281378243,-569.7628253012546,17307.344338714705,-3664.799797330932,1593.2071401451312,1954.095149380067,3262.8234346133163,-499.5561040799405,17396.054698305106,-3675.530505378138,1607.071150702402,1966.4526138681076
1080.0,-652.0,17668.0,-4703.0,2955.0,1956.0,1120.8859452647932,-598.1004976828203,17703.328842030092,-4687.665595645016,2950.736987955639,1960.095929863099,1175.8900840898395,-624.0579942125589,17807.017178504146,-4706.712293935366,2947.0499676126456,1955.2943227317896,1027.9005007665503,-583.5698424014734,17718.841171464843,-4688.549866586542,2956.4573923146495,1973.8693382185863,1071.589484167493,-663.1994619262416,17557.422696384398,-4715.415381370846,2937.687490683127,1944.62872336905,1117.594742178285,-609.3455779069022,17648.39467964585,-4691.637908898892,2954.8010644778806,1959.808167381372,1049.9505244923562,-841.9383108851611,17642.71400699543,-4695.882061006647,2948.7914479531187,1980.14137817998,1080.764792445523,-602.3723262130949,17674.275714600586,-4705.5679495394415,2954.3203860972285,1980.2087307821619,1263.48131615979,-531.7301200510364,17688.06253094726,-4690.663472687473,2942.370230505591,1973.8901646744087,1024.3002420031708,-653.1088812734288,17739.99921786619,-4694.4700325088315,2947.6352791370127,1958.5333111272644,1015.6217574835435,-686.1828181775978,17711.951254266336,-4712.44565672003,2956.5746989394165,1944.6145073834912,1004.6861682462921,-698.9731237366668,17553.655296757323,-4703.462547701547,2959.129337348681,1945.7341870239022
1396.0,5148.0,17536.0,978.0,4402.0,6074.0,1352.7229951627312,4946.0924417947135,17529.852958758915,993.5955912068688,4388.517772581417,6064.598422425592,1426.340228755719,5073.6246833173855,17726.511999995502,977.0321138982916,4403.790805240823,6076.923591974693,1442.8672127925322,5202.847492782988,17590.294097627597,986.0976329798426,4412.876731186437,6070.805109580675,1334.0343480385725,5099.6204954138575,17439.84838077223,983.3640262981702,4404.064718355085,6061.592058481946,1416.947938155166,5320.275709789763,17521.32292649393,978.8479191849682,4397.785074128919,6089.663507493364,1230.9367797545603,5235.342798022668,17448.878335156445,990.509242820941,4393.170234841136,6075.623765404152,1592.6220011010587,5242.726331375893,17571.33481341939,960.8499280667407,4410.778641490103,6086.812269850568,1408.8096331295153,5100.316431691255,17597.55018504379,986.1019008860276,4412.322229965781,6066.382092742796,1357.7560920563442,5127.25752060403,17521.590142788336,973.1418439034394,4398.296307490328,6062.465052630499,1599.8545416152149,5215.864437021766,17456.101443378557,984.4894846918149,4388.687032936455,6052.522216274486,1298.0926936871836,5026.508936310705,17507.803819624096,983.4748269229772,4401.511851341213,6073.726824500133
380.0,-4468.0,22668.0,9415.0,4594.0,7389.0,428.37201661540814,-4447.4855963126865,22733.102871394356,9420.496521717474,4599.36912425634,7389.621652763868,370.63993797508334,-4520.332440702472,22762.639187651996,9412.490181423447,4581.713927501527,7398.229752078425,588.6566881952684,-4341.2465412526735,22574.920388082974,9413.30562947778,4600.053435819773,7391.968009649632,429.45844913703195,-4446.329638596285,22457.86989886146,9403.997574744533,4610.461615577647,7402.603136981565,449.4341737709944,-4427.294178274977,22487.466581639736,9409.785556524035,4587.602868385427,7397.805098981462,447.6006441926168,-4463.417544403239,22673.80658948191,9412.784694434195,4602.0053838694785,7389.747743748567,318.9541174452424,-4660.5926780550135,22776.18582745215,9409.030548773602,4595.809816374742,7391.445349462972,245.3424004064711,-4329.48267365089,22620.0011388349,9408.016707166227,4585.996286189425,7405.430772951265,553.7501257274797,-4343.87064280074,22619.840920734812,9417.127511092496,4586.116154108548,7381.469818718693,352.9184097518043,-4533.094131503087,22554.278384418973,9421.756894560825,4586.716907017537,7380.16831547965,536.6794459100702,-4413.716499240566,22767.42252328083,9393.19939697071,4606.216971535315,7396.915666966794
1308.0,-3012.0,19816.0,9419.0,5742.0,8821.0,1168.838186703772,-3092.928777963514,19954.886681438096,9420.74034963976,5737.7075159698625,8829.858758278637,1308.4263857116277,-3165.203792991188,19759.821827541327,9429.121646199292,5742.339300790231,8823.441153770435,1360.9612736105382,-3052.5387705459034,19720.052482315972,9426.266806174694,5747.1536994119715,8810.959697195669,1285.383454526048,-3038.7837816475317,19748.790325102585,9404.450856644768,5749.988687317215,8810.067691732032,1209.7782386325046,-2921.992015486104,19968.130505089983,9412.203834614886,5741.873776334506,8832.75975567881,1419.1906050873904,-3128.194080309651,19735.38733277557,9423.021864038867,5756.304441706613,8825.006744825503,1225.706993599282,-3011.624695318928,19800.94696187666,9414.517113806469,5727.931435092996,8792.14061201278,1229.9891418547325,-3100.174879535636,19882.10789528852,9411.902172671565,5733.025636421832,8834.39476208942,1193.150437823527,-3038.3575463505013,19898.929600785974,9431.89005730613,5751.274867200586,8818.809052702985,1353.773772305109,-2915.8725010464686,19943.44233153535,9413.647408304138,5744.125276446081,8820.964037848562,1341.1080863862044,-3093.4177120038216,20003.368796501414,9409.637908197557,5746.00105618278,8823.701941650868
-572.0,-712.0,23000.0,3659.0,9657.0,10040.0,-567.8693011551611,-799.7826649402366,22843.868159829653,3659.144631722457,9656.14325707754,10032.517407667758,-646.6476793000655,-697.5232945291609,22827.52399335539,3666.0312990709813,9666.705997505458,10055.494561024427,-765.7725626155576,-568.2734317485788,23041.442684482605,3635.6898815861937,9664.853412502089,10034.65443881077,-641.0231561722339,-644.3071777496533,22894.50347052888,3657.957932693385,9666.144078444026,10031.656989819749,-628.1369180635318,-667.5499059937446,22889.854094494032,3655.633151493511,9662.439044684921,10029.461290161245,-589.1913609056933,-611.4208503993007,22948.053183059983,3664.2663181852054,9655.720314951583,10048.72785626517,-605.3252772044373,-636.7782600999531,22878.41563811892,3663.843513631167,9670.93835485155,10034.130423176257,-616.918414368747,-833.4682293965421,22914.989129757243,3655.235972811928,9661.181503827247,10039.607687438398,-518.9770139329091,-719.4293094448476,23116.413774036406,3656.495223951201,9658.66913884364,10047.51643208879,-667.2257076047717,-723.3942482501196,22940.033158315564,3640.5736123680285,9647.506089303164,10034.726989090852,-657.5841314183759,-676.087042677917,22889.28013249241,3636.4560995965912,9656.706133098849,10025.307186968956
-1480.0,368.0,18716.0,2520.0,10597.0,14388.0,-1498.0771406267108,395.2846314922789,18617.68135590993,2519.547657899632,10582.96113412329,14391.764556423415,-1493.4295944691753,543.8649178415691,18547.643057669397,2508.095006811847,10597.657427831851,14384.443782396616,-1462.4857571999607,460.29912221735947,18727.624955589527,2512.4752921034988,10590.040286768299,14378.834742628402,-1759.1403551554004,139.07533576733954,18792.851739585873,2520.1043272691195,10591.543450390496,14387.113216246154,-1466.0981984716623,479.57371833319166,18652.350270295723,2516.804609487656,10581.697480972236,14400.466093312589,-1444.2379663721272,554.6980981602283,18779.944963219696,2523.96225547197,10589.787099372104,14396.987147097623,-1567.2218242170707,382.12759822543387,18793.24622577046,2536.011951656811,10593.289421411051,14394.21460269321,-1301.797998324437,393.318470389615,18878.523887508774,2513.1720674508742,10605.397973128089,14400.124596997097,-1599.686566749045,420.33583968232824,18618.587067671186,2503.921801477996,10607.305859910288,14379.473362378832,-1544.7145304815153,404.06011046261284,18491.580248682676,2517.230739663477,10613.90783737087,14387.118661036748,-1563.3017983781538,347.0973120708114,18715.38823326327,2522.4218316903457,10610.365730100091,14371.268375119655
-252.0,4252.0,15492.0,6155.0,15788.0,20653.0,-256.41331463146145,4371.480336062746,15474.653732884073,6155.706573903393,15782.462251762545,20661.76077506952,-244.27421941243622,4270.915909066737,15603.391659403724,6155.155320422563,15771.504611594813,20652.184627611332,-220.9527978403167,4168.262285952791,15438.474764980547,6155.985402748665,15780.618619532837,20656.116490331886,-265.1130199857124,4132.669146544114,15409.06820429777,6153.221755272856,15783.748517269936,20657.293735679563,-486.8097570516528,4237.670529423836,15516.560945004447,6166.987577376844,15779.244806060395,20651.466558834443,-202.10882299184053,4271.332882777464,15464.519364857904,6145.241636708046,15803.021107116014,20656.831228106555,-322.4175233936453,4352.660729452678,15590.670189559312,6162.857751137768,15792.86956450031,20664.099688928032,-317.40115650839454,4290.049083325316,15631.557203634704,6136.191121653538,15787.599038644987,20663.220884243554,-206.2847056079789,4209.494983822381,15313.022427335743,6163.4525324217975,15782.754056657397,20655.2339583818,-389.1682735626663,4273.123235657079,15538.421159765529,6157.740123214417,15794.64804260581,20653.791513675544,-217.80090355305055,4247.620235685297,15609.379458370773,6158.049611137604,15798.092913300838,20663.59952047536
-1008.0,2208.0,10556.0,13872.0,21086.0,25636.0,-932.5867151294098,2135.1443169970844,10510.012001707217,13874.941912898661,21090.402439604808,25641.410743872744,-1004.7199038274982,2054.051914109999,10445.479093483034,13853.123952512075,21092.730362087983,25656.15587577041,-959.6677734669743,2343.1829586388967,10491.788915778357,13883.706710210283,21086.955918677802,25621.43062722748,-1022.0325539450016,2261.340586822857,10558.0918879771,13869.717070742552,21083.66782918477,25648.442347368316,-1082.350170421182,2028.2657942807039,10604.52550172982,13855.047593745747,21080.698188845887,25635.267862044228,-1013.5459957582951,2156.046868078149,10618.92052454322,13878.971914385236,21090.84071858451,25641.414512667787,-1206.3568808633695,2412.711905322091,10539.623513968943,13881.448001074046,21079.928670827507,25657.8993680535,-1033.892925999576,2258.396286894916,10497.63610187,13871.726125627456,21093.454033213482,25611.653453627456,-900.937050956753,2316.8847348772692,10658.188679901308,13873.843649438712,21073.703922095687,25639.714808352754,-960.7474178935964,2001.8149443688474,10493.098296828362,13865.086660513443,21095.23195574596,25616.956424162985,-1033.3349969248266,2186.6518337860916,10693.19256793998,13894.96372305159,21087.590587993633,25631.335132057655
2028.0,3188.0,15692.0,12602.0,12879.0,25541.0,1946.2647328416124,3193.114369657221,15632.3424544689,12595.64447036999,12897.081823493583,25532.161363155577,2009.0754485133111,3116.6772420184925,15577.0371811754,12598.21487784954,12868.201576577152,25538.674707677663,2089.255738854358,3114.5881582544216,15860.61448947539,12602.79241118762,12863.050773982679,25519.684832242572,1901.9144930395148,3247.709174805336,15672.001424438815,12586.228134738574,12885.129099992266,25525.627507392714,2136.217566579832,3157.257148222478,15726.354678047906,12607.80480570083,12878.913883554867,25527.132613154008,2130.2469138929914,3195.679787242601,15552.008797414623,12589.116615731557,12882.883623173073,25554.130252866256,1854.187654638788,3254.5656996963307,15582.916756614752,12614.637087685545,12859.73413963709,25533.690362771045,2044.4177116889448,3226.32734476336,15567.634958777835,12612.267977717438,12862.232334326935,25535.288494313707,2031.5721136582729,3153.038175178731,15700.81542772203,12596.471552942947,12881.744280896075,25522.92444179913,2063.319905127964,3067.8976595364456,15741.089402021144,12606.554340421317,12906.610171896124,25549.77341465223,2040.0131072589202,3182.3095433624853,15577.30649045825,12597.357819208015,12876.675606426148,25550.00672143642
-1768.0,-7216.0,11352.0,-5279.0,3633.0,15126.0,-1780.7714995599645,-7316.703171826896,11337.300540522294,-5272.476758468569,3609.248320227352,15138.397148985685,-1654.502424891731,-7250.4494254744795,11410.629762671035,-5260.7268727030205,3627.7796250845468,15124.839326024188,-1699.0467653498818,-7245.845758381841,11254.147827206374,-5274.097166760224,3629.0617017362647,15125.274035935181,-1693.9408705759186,-7235.4128902607235,11194.033706266924,-5263.922181942313,3643.9152591898746,15126.290399287323,-1735.8229636029926,-7058.429617662865,11171.81129722163,-5284.440929683895,3657.8695222866304,15124.899464182761,-1714.532580907535,-7225.161276192228,11249.529937195251,-5279.705979460644,3641.9041170132045,15139.824356132503,-1848.148095291437,-7176.315881602741,11448.046835896297,-5294.909298112281,3616.6289814708853,15131.14797696521,-1769.1648713087623,-7201.500574792246,11583.34229534261,-5279.861335563405,3626.9413208783976,15122.508568100728,-1771.7546652867195,-7493.495758581684,11208.100510401746,-5266.751003370805,3636.224489746743,15121.618814672827,-1905.6541459758728,-7244.120618136543,11405.993896008222,-5282.880395847574,3639.502525045902,15098.392939435214,-1694.6006251419324,-7334.341905842368,11377.792416455444,-5278.964396124337,3627.526000660586,15141.593492883461
-1600.0,-16196.0,19144.0,-32768.0,-10264.0,-9063.0,-1667.0583579872139,-16342.91336224247,19301.019919952334,-32775.07115679217,-10259.386617930695,-9057.747459705648,-1544.9908875192589,-16307.96427817253,19126.272912555985,-32765.509398860897,-10273.676242626338,-9052.300574237091,-1515.4021515628365,-16290.8656087805,19312.186981364273,-32773.23213812497,-10268.84757306913,-9067.5813775922,-1500.8526978587938,-16192.849519703086,19101.32467680265,-32779.01391001261,-10253.796529085306,-9079.450815100037,-1523.468623837052,-16399.530429207178,19302.383228913528,-32763.814249853618,-10261.126148273432,-9057.078814316108,-1591.26999185366,-16137.72890588229,19061.874410786346,-32776.07718937039,-10258.3988624594,-9052.12061621409,-1527.6529277427405,-16151.122192127796,19134.515135042042,-32753.32624934107,-10258.466019507703,-9081.233140340377,-1738.3215380683644,-16338.493024380441,19146.38323388807,-32748.85919788169,-10276.480092209678,-9066.217034897001,-1603.1217486623093,-16049.161064199441,19206.278335315757,-32773.01546056097,-10260.558903606352,-9072.468329439625,-1786.8485261796561,-16154.868389179195,19222.284237679803,-32787.399308166605,-10272.142228613786,-9047.48812359939,-1567.961314532612,-16172.608631485575,19099.89458542385,-32775.14911862639,-10264.313608054204,-9047.040638823964
-5252.0,-10976.0,21620.0,-32768.0,-18300.0,-29553.0,-5041.565988025316,-10965.645139751503,21686.063141349274,-32785.55699557464,-18318.29857776862,-29569.462237528955,-5313.4454055836195,-10968.49228414704,21639.35938551469,-32754.175375933468,-18299.212394200822,-29537.33231123828,-5050.962687351324,-10928.884394160048,21520.195096217594,-32774.91080492326,-18307.078378283037,-29562.74683507799,-5288.198270382624,-11091.124923113171,21609.91814485645,-32768.81829565365,-18289.644838453874,-29568.492619062894,-5283.266134673496,-10992.614424573976,21779.879331131775,-32776.054341353665,-18297.110245889606,-29559.628147755095,-5232.348369094935,-11016.154706627185,21638.763633184324,-32760.666917769748,-18290.86046523733,-29565.777160758007,-5344.071990101303,-10937.214426346412,21521.373957356456,-32756.35931801363,-18283.421179026955,-29555.68539495667,-5435.213076343272,-10893.292149694425,21739.117012350238,-32780.54272226407,-18303.133408633603,-29548.905985056655,-5485.654166237157,-10913.565239262447,21516.462285632322,-32760.43086273644,-18290.01982039998,-29530.96032611627,-5338.078993190364,-10812.440339948764,21738.002192728825,-32760.59500601677,-18304.925858979495,-29555.298352076716,-5139.787678753097,-10761.16516945528,21548.975185366806,-32768.32661114408,-18315.405412921937,-29547.98110109159
-3520.0,-5436.0,25296.0,-31669.0,-18631.0,-31362.0,-3588.8804294607316,-5284.421950437276,25305.761576531993,-31672.247552342655,-18618.89818032761,-31358.983234127136,-3538.440628079409,-5450.950387992892,25298.942260576594,-31661.12658526426,-18635.14894961014,-31368.20869861134,-3654.317049785168,-5478.155039242613,25397.18014602928,-31674.338784304688,-18635.595007164142,-31371.118962793844,-3413.0489039263985,-5324.352966435957,25288.88205546807,-31681.628206707315,-18636.27803443987,-31366.51169352455,-3588.2136172588444,-5512.609206914161,25478.279942073965,-31664.960764335436,-18634.475370162414,-31345.984099991914,-3408.092584599009,-5304.176612551697,25368.191641456684,-31651.820920264807,-18622.51166878593,-31358.298893475323,-3543.8442989767996,-5518.935107614512,25224.708165411277,-31668.72771733249,-18622.588126748306,-31349.847705928278,-3647.2949613286105,-5400.80825249827,25314.97944835615,-31667.283367071417,-18608.74064199217,-31359.548529048378,-3620.7880781848517,-5349.892857670482,25106.165887955467,-31662.471967425394,-18641.690191014775,-31369.76569754383,-3487.770620940894,-5414.815665799448,25250.879242481285,-31670.452972225325,-18624.76231115332,-31361.344997208384,-3429.492798886952,-5351.196896444746,25268.80780620903,-31689.22622833815,-18621.296734437117,-31359.597661055912
-3992.0,3240.0,24500.0,-15028.0,-15575.0,-23899.0,-4084.988816378595,3314.355930877338,24491.68972236207,-15029.933231318882,-15571.560271209475,-23898.5264748823,-3793.3509740811896,3200.7274969863815,24472.421135686276,-15031.46318247892,-15574.169203934489,-23891.4249572675,-3854.927193852105,3260.010567263258,24480.2118187059,-15024.57455444972,-15579.28754516579,-23903.395701382913,-3944.7652241235337,3250.936611781295,24496.84661417983,-15023.296130560462,-15600.268618178852,-23904.94897183208,-4132.892530378461,3165.655579137514,24481.5931231819,-15043.465308918943,-15575.307458299952,-23891.742959798714,-4076.696222175925,3229.5579396397425,24486.61615859708,-15038.92095244985,-15584.902042623973,-23883.626279526467,-4002.7357450738386,3215.345396885901,24221.240406926045,-15017.789606153463,-15581.993784573082,-23875.863485338723,-4001.772927917773,3081.4235422255865,24694.44500288192,-15016.033420902968,-15591.486912788925,-23898.17548180616,-3954.9007416912627,3230.034134494712,24409.863406401477,-15023.776001680368,-15567.19742942204,-23898.821484191645,-3894.4838953104722,3391.621420057001,24453.802577434384,-15024.413935895014,-15557.403747182949,-23908.044321893194,-3883.545463004127,3266.4958278338904,24483.596323860696,-15019.502947061386,-15577.907670582055,-23897.020883036555
-2020.0,7332.0,8460.0,22068.0,5159.0,-5302.0,-2094.243317818556,7488.627422501045,8425.65888159831,22045.117391145857,5158.774707042872,-5298.27595054367,-2167.3207831113864,7348.818543102772,8467.8740172147,22070.631384369968,5156.769475607552,-5310.249815793446,-1991.2615616125474,7363.069784189581,8571.734247402203,22062.41043321481,5155.428534007307,-5290.560767256718,-1995.7624380296547,7225.7082745816515,8259.36147580289,22064.156880716684,5170.871090170614,-5319.397265572833,-2103.2740045938353,7364.582969911113,8360.846293524986,22061.271875364957,5158.059512014649,-5283.825242206931,-2027.7996090144195,7275.788870925813,8502.755557728902,22061.85684010157,5161.903117816366,-5296.830601477023,-2295.811332951168,7235.488476766714,8516.758632331626,22066.9571669894,5149.44503957225,-5292.9537692260255,-2026.425546215653,7373.539860994346,8491.589101127274,22043.654817191204,5137.9390307047315,-5276.366712162061,-2190.1064789726797,7464.921929788224,8594.35419905244,22079.119916862484,5162.836367406658,-5297.878543042966,-1999.5960011649372,7323.291286374021,8369.61447817102,22052.44593701177,5157.898925694082,-5306.175235226693,-1975.3895318309733,7374.618875303502,8574.331600374557,22088.02715663405,5156.344454837493,-5295.0033866502745
4224.0,2728.0,10988.0,32767.0,31679.0,10267.0,4184.112111162335,2692.705785194524,11046.73972026553,32783.398710738955,31690.67366111145,10259.662296621284,4279.842759132786,2705.4068424169773,11034.82294757621,32757.019605238722,31672.638226718802,10261.50407521523,4206.17364599769,2727.2752895311587,10984.731804995672,32762.819864952206,31689.052251407888,10265.218264451274,4334.212696476927,2676.8781857384975,11087.37391861425,32761.848866485027,31689.33862851612,10276.06056568923,4184.137330493188,2772.772100468076,11026.358627721538,32784.19366558741,31662.051030496124,10253.33904746617,4372.04161053321,2934.407690281726,11040.478849297,32781.68898049307,31708.208819829873,10260.273094779368,4090.319776623908,2795.7136958140904,11149.998685977956,32758.97453532233,31696.141531588637,10266.506896426981,4156.563809316198,2839.6565260842885,10962.165618100747,32777.76263900847,31670.1253178325,10261.698355636026,4125.520474962887,2699.1089212391134,10980.55827218988,32751.788971273832,31694.303529960187,10293.034189176355,4119.065586702901,2838.686182181594,10958.948702149308,32780.736378702175,31670.190833090288,10272.027590080063,4162.997883265799,2687.509400953369,10914.77575689955,32763.81009773409,31675.613752870748,10263.56872429794
6732.0,-3516.0,10712.0,32767.0,31074.0,17970.0,6670.562271973105,-3587.4492586036095,10668.255384668984,32769.82594412097,31074.367261140524,17965.89006891238,6634.888611002256,-3528.7457007874696,10824.60076051139,32757.06355676557,31065.47612483484,17950.20817867889,6761.845320133388,-3615.1819684758793,10693.05199534414,32764.895836799376,31069.82521586937,17964.51972079193,6851.100608172276,-3493.4825225929308,10622.451235000048,32758.142944472642,31076.40126754361,17970.45105756404,6918.115016653233,-3356.8881170365166,10858.885312468996,32772.6596573032,31077.59262732675,17964.112882080346,6887.083328732924,-3490.2062135348383,10658.979099876562,32760.700708759316,31084.820489686605,17977.343991304828,6831.85755848247,-3652.470334007788,10598.48818781675,32772.17033043712,31085.53781511171,17988.510050724217,6597.37733480703,-3495.4129409029147,10774.756384546485,32767.210071348974,31079.128232698848,17990.608573307924,6621.244925065761,-3314.1459606270932,10665.846174413153,32772.83080044848,31069.029869552083,17963.050548970055,6777.046703000488,-3559.11770810016,10570.229093180054,32764.296264590404,31053.244885544802,17961.329546949088,6484.476350992927,-3407.3819707952402,10930.784289752,32767.974863742013,31078.67286160765,17967.25154304722
6632.0,-9536.0,10920.0,21047.0,19573.0,23106.0,6629.361783481374,-9362.31551508041,10990.311084140232,21060.274396427863,19577.099905930703,23120.6333625798,6664.633726732383,-9548.804486153169,10905.564726484756,21042.81233213204,19565.21010346547,23082.169018226916,6705.291967717558,-9644.310933057222,10898.647526507984,21061.173081912882,19574.37861820512,23119.426511495156,6729.348334406925,-9667.26425489217,10980.268089394413,21057.91085719925,19551.952495544774,23096.481050366387,6601.944201846023,-9650.951754137712,10887.380012664891,21059.466223997686,19567.46359552766,23117.831532656484,6712.560556136134,-9584.787983685505,10863.493513895159,21049.723746080683,19563.092940702372,23101.343906458675,6749.593995779209,-9650.114804848543,10860.417719753279,21057.693305812372,19579.506480032862,23100.81067942518,6527.0292045316955,-9713.708029657517,10969.023769853477,21042.542087158836,19591.483594306977,23097.92104193885,6608.259899376071,-9368.498470929206,10909.703167444346,21052.04196242474,19565.224362976816,23110.714176102778,6641.987119887277,-9373.23944176804,10871.290940172663,21037.73677105376,19568.852376474057,23096.858549573382,6583.067022174405,-9754.512924747125,10922.350672167737,21050.391022405067,19592.66779479612,23095.410185332046
4836.0,-12364.0,18660.0,-32768.0,-8430.0,11517.0,4887.5347333207355,-12164.423320241372,18547.04385338333,-32772.301546424955,-8429.891446854826,11522.574756271939,4710.136018425017,-12480.198201694157,18532.294674659133,-32775.67127595032,-8430.482443871797,11517.610510025886,4816.908989885526,-12455.839806968737,18725.76917881011,-32770.45998105701,-8447.285644336935,11513.541799404733,4781.261277225321,-12243.838589865336,18655.615040705237,-32779.26735006355,-8420.473047344054,11513.434970558139,4908.298359918019,-12213.921581934952,18911.13233415704,-32767.06196180597,-8431.210129437131,11528.883383243437,4905.432795869694,-12309.839640475677,18714.869093752808,-32759.98065942391,-8429.074467968532,11521.060590764635,4873.73661049402,-12506.106305989724,18687.94194994134,-32757.053215359912,-8435.57283749802,11523.240159018636,5088.835196529198,-12452.811058314237,18642.225471600213,-32788.1978482292,-8429.761583328676,11494.273608197047,4833.259989305271,-12270.090007713494,18719.29915931432,-32784.53958517702,-8410.051883778377,11516.74769679635,4866.592401566073,-12448.917217840195,18819.723363031986,-32776.69483972692,-8417.590549409308,11521.411284042111,4928.32036433485,-12366.31731396511,18769.706025352745,-32752.62219771962,-8425.120735177235,11534.165060270216
-4092.0,-4808.0,24360.0,-32768.0,-27532.0,-9363.0,-4018.822571260719,-4721.942248664889,24348.530929499906,-32768.48742379579,-27521.065611423404,-9356.971898917447,-4057.1076413274227,-4914.1568502691935,24322.167049110205,-32775.81095800533,-27544.154749476682,-9368.05815374863,-4162.466053438591,-4793.377511135307,24380.334327427085,-32776.78758332772,-27528.029067094838,-9366.935042037028,-4043.3550950765966,-4807.367346033423,24489.756239712624,-32784.95202929208,-27545.822219427067,-9384.143262361978,-4053.448310157325,-4903.342795953454,24264.322168049835,-32769.8081209286,-27528.123192943563,-9367.277549581093,-4047.0788006993475,-4971.683003667234,24234.86031541504,-32765.848782170488,-27526.883430022255,-9366.846387705125,-3899.6781534028514,-4799.262520595786,24443.661656404598,-32754.253662958385,-27530.64065047526,-9350.501221647202,-4048.8676479775368,-4889.58503700111,24445.143314891528,-32783.05699206014,-27525.357261662008,-9365.180891454685,-4104.556448256769,-4688.439467760104,24457.528488154923,-32762.34309317355,-27525.027106375845,-9365.140012637872,-4113.2470334379805,-4756.894959864348,24445.924942826154,-32764.32416042959,-27511.156933574915,-9376.602287746713,-4235.944563860746,-4789.567730919325,24301.403045806757,-32773.22102222042,-27537.251655894976,-9359.860782976148
-7044.0,3248.0,20132.0,-16861.0,-20524.0,-13114.0,-7050.779902954861,3170.764854031083,20042.318146962552,-16875.34161016359,-20525.948024157387,-13112.905535063064,-7075.4739401880215,3185.32704190403,20168.072741323886,-16871.427584385117,-20539.897468772546,-13117.085208205546,-6932.372356884314,3228.954034387349,20157.273791975666,-16860.029543368324,-20510.3768865491,-13124.174378671441,-6935.792271048728,3268.3593098445094,20116.796829410985,-16860.721427860997,-20524.762793981947,-13116.451083328622,-6876.130550436392,3193.2048896956535,19958.3657307704,-16869.22840252767,-20529.82196963588,-13113.586076983558,-7149.44538592282,3317.680117785117,19977.17427529674,-16845.63198961553,-20511.322684105642,-13131.14324766648,-6944.1139130539505,3247.207607046187,20009.247307106787,-16864.88766404293,-20533.00665325595,-13116.756860073385,-7052.415989706293,3237.7349495685053,20259.0462878082,-16854.523421267186,-20517.93995043407,-13114.979119804666,-6858.67384987449,3083.660944899446,20033.052817208067,-16869.024857586326,-20517.390955327504,-13121.019043362803,-6989.602982264432,3192.115555726926,20056.687868475165,-16850.158164847497,-20538.10380799046,-13100.451286076932,-6935.042840345499,3038.733435204037,20077.694567418064,-16858.412868050917,-20526.906838917505,-13117.911817094608
-4332.0,3592.0,15620.0,28092.0,6001.0,-4930.0,-4352.441322439661,3605.4764659256566,15643.621101389877,28098.029629010372,6000.523206192844,-4928.615680844775,-4291.879442316648,3684.207395559044,15667.47950419953,28098.643948516365,5986.531582339167,-4939.335496286388,-4167.259335438176,3629.091125045703,15356.547024058458,28092.251620428433,5998.870754379498,-4929.668439088863,-4144.612197763836,3606.528399787544,15542.572435205175,28091.401470452056,6000.8766986818755,-4933.916769204062,-4375.640931414813,3777.159776345298,15541.510888944775,28074.715158429255,5993.493307000987,-4912.53576451666,-4327.244127819595,3547.4160649964847,15763.83275064271,28099.162094846888,5997.009978083388,-4922.7190531581655,-4378.588121955232,3618.9277319112553,15542.328746275858,28088.836964534996,5990.766630922799,-4919.2277153127725,-4550.64037771142,3396.773829803858,15654.591951024266,28105.855044278196,6002.417028242945,-4913.9103066248,-4299.904211304092,3524.3352897135537,15682.161706684925,28100.914521161587,6005.250281434335,-4917.805817663093,-4100.3692895268005,3337.777468131281,15688.090184318562,28081.48491422538,5998.964143598153,-4928.984472347292,-4234.459134750326,3615.503521140768,15543.693529295731,28078.659119981497,6011.580719387768,-4920.104101592826
2160.0,-2788.0,12896.0,32767.0,26684.0,460.0,2056.1906069170946,-2705.997931579352,12912.986814954074,32761.442221279816,26684.222468390202,480.9660345641407,1930.7356222447722,-2606.798091952861,12881.542970445378,32757.205649467785,26693.41512483734,450.09124890167766,2152.7279746561658,-2809.3362649985015,12945.471556146478,32782.0591235586,26683.6537864682,454.5925554499565,2288.9066884425492,-2777.706216615097,12832.763419938135,32758.38785881545,26688.974048286876,477.9151869028981,2102.419951488996,-2720.4120993111187,12658.58383640772,32753.775882753842,26679.71419286681,458.2486396998688,2085.0397822548102,-2693.246504950252,12682.225443821715,32766.96563446785,26674.827098088153,448.53123358068785,2156.5278588752312,-2854.007890013266,12846.296336450234,32770.78289149084,26684.95081094924,463.8246296169271,2218.5528712345554,-2752.58821164505,12896.945512813185,32758.95832272174,26688.99529697585,447.091850810984,1959.41094534766,-2680.1120286865303,12760.426184563785,32755.8366097075,26674.820434524878,470.0169143757728,2155.3702104324716,-2804.7408400012428,12721.833155939545,32760.503346325477,26679.748866632934,474.4418112427408,1996.6386001610863,-2830.6679817145823,12931.503521370478,32763.76663243556,26690.153830790125,453.76493987596626
9412.0,-10992.0,10356.0,15729.0,10695.0,9452.0,9381.449417472986,-11006.63953308489,10233.640402366287,15722.388327403083,10704.558091932386,9438.677745638935,9496.49708000753,-10929.221582871194,10487.601751219585,15731.629266973825,10673.995515106815,9457.841666260212,9364.781287024342,-11087.930223624331,10403.85887481902,15711.499857596747,10701.704995355294,9462.870249923151,9258.448108849516,-10884.197000571337,10422.789011032919,15714.252862298656,10700.022931135518,9432.925921703996,9435.352758378313,-11118.673024257056,10265.76411315903,15729.226469492669,10684.49852286614,9450.373299087165,9354.06000008679,-10934.494836597518,10319.77528518079,15738.79340196701,10695.87458710242,9448.877157567114,9445.650332202196,-11051.579936932789,10373.216926452516,15723.512923879385,10702.304163013041,9424.634565907754,9403.227923263908,-10975.801185273665,10291.24824716885,15718.058623678136,10706.281568076083,9466.681212773505,9252.492844696973,-11086.107699401153,10543.208635427878,15729.782495416546,10694.196987106016,9450.632415597742,9392.363328700685,-11070.304225318125,10416.463725631313,15735.811266306131,10683.462357154818,9458.087182442545,9496.905447161605,-11012.087857936574,10376.156524211467,15717.616079417896,10705.575996913087,9450.674768131026
7664.0,-4036.0,16256.0,-32621.0,-15759.0,11350.0,7703.8136763330585,-4124.988682181126,16169.440938595815,-32624.616967350255,-15757.394311495576,11360.500683291566,7678.232342626431,-4133.378098212496,16207.392078939076,-32619.8852450749,-15760.083109188556,11358.993662615854,7639.9389497681495,-4178.456724420622,16261.271394843407,-32617.7286426585,-15747.047799545988,11360.247768489688,7940.796528715425,-3977.178323632393,16201.763837224436,-32627.667310458302,-15757.48595551207,11358.797781887877,7715.4845243774025,-3871.9439225192955,16311.563515420954,-32608.9877577608,-15738.84621883222,11372.98513587084,7657.003545176052,-4087.963453133631,16310.787640299646,-32623.119174363215,-15765.185151274229,11351.507505535417,7777.028746677615,-4085.952253350552,16247.549488469647,-32612.24402155578,-15764.100700633448,11351.960521048133,7532.1402946273465,-4021.799532164241,16071.388239362926,-32601.470808764014,-15758.58965923357,11355.966690831765,7549.880878517108,-4100.189907481197,16260.380429858053,-32612.565139880346,-15747.939273641527,11339.017343930815,7489.472427052515,-4159.194598975921,16372.769531721715,-32621.558306285617,-15753.151154084508,11335.956672855362,7635.535605382765,-4193.717495543521,16314.01185269039,-32614.09758871429,-15763.773831338392,11358.156778005205
-3444.0,6972.0,25336.0,-32768.0,-25794.0,4865.0,-3399.8425121720516,6950.4537127177655,25368.416801612693,-32771.00366573444,-25790.42931639597,4848.123959281992,-3307.8553572646374,6949.315338775615,25319.926573960183,-32777.89849945352,-25793.187302819093,4850.6157250915785,-3558.4543892780625,6938.541823958411,25427.458413091867,-32756.25798337418,-25801.40285151181,4873.702368808055,-3314.5106163038236,6861.921191865036,25310.913256628013,-32779.47343440772,-25823.2336809765,4848.131270667586,-3403.0456130749067,6896.709446012611,25192.664038242005,-32763.09209051293,-25788.973062394198,4868.338866196595,-3495.328629596279,7130.735498019797,25186.869999371826,-32775.47995057911,-25803.388083019145,4858.029884937418,-3517.5860090784067,6918.653691279364,25326.206663086934,-32745.041957516933,-25800.589184778735,4861.057247883733,-3172.0213912736695,7081.8417838585165,25332.419622962905,-32775.951061423904,-25803.608681034006,4855.32486396086,-3467.980647045321,6967.719961722248,25249.08328550036,-32760.36437884854,-25777.69019346208,4861.24636391771,-3428.0413638895066,6931.31912089494,25420.32490633275,-32791.06777967782,-25780.927215403954,4865.483997709983,-3447.2439210199573,7024.717526695587,25127.06823701393,-32764.443631395192,-25779.28011948967,4863.460157646091
-3100.0,4480.0,16928.0,15894.0,-10299.0,-1549.0,-2997.7456403957663,4463.583897965609,16813.058890052387,15908.309496456797,-10296.861193287536,-1541.820579485317,-3073.5941061314197,4770.013639109821,16985.09516080665,15898.673121880096,-10307.061982913843,-1541.9464758354416,-2988.6352540379453,4300.158368420337,16888.014272063196,15894.520900237285,-10283.821965715057,-1563.2415043746505,-3214.268395701519,4509.924924586958,17112.115475486247,15891.88867123678,-10298.889622878458,-1561.147651906799,-3095.033161251567,4409.454478738636,16986.16929683446,15898.749220743179,-10288.527832195172,-1534.4881497484032,-3087.5649466991003,4492.029436014349,16882.6813142704,15893.856737508762,-10300.281154589862,-1539.614874308152,-3062.5489318137493,4548.508834515242,16815.87007686987,15894.239881527206,-10291.467113817927,-1562.837072546772,-3181.807776384834,4496.637633333504,17017.997812957634,15887.899756768178,-10293.499627142555,-1549.3397033488818,-3232.0237477586443,4487.152103475814,16838.38618419278,15880.707700867151,-10307.90954925694,-1542.3488711503549,-3090.160471591049,4631.545159899513,17035.25500076787,15872.304098510343,-10302.273390473312,-1543.3854609966215,-3178.565909778006,4662.222840898812,16849.69915957446,15909.166630042902,-10314.937239099283,-1559.5383516993713
-3888.0,-572.0,20348.0,32767.0,20548.0,-2284.0,-3804.3302420432015,-686.0573892770024,20224.27695849835,32749.08222614978,20569.312256257454,-2273.1071466521234,-3836.221838789401,-601.3079500711108,20549.79062746004,32772.97190987836,20556.18475070771,-2265.8922674518813,-3815.3557034542964,-615.295882296238,20319.28340495541,32765.99160319261,20551.66343372348,-2287.4741619886836,-3875.894477543785,-531.8447754886213,20465.01625362569,32763.78161436455,20558.678400983044,-2265.153037033156,-3846.452370129533,-476.8905801816966,20371.71059925285,32764.35522377596,20558.231162185417,-2300.519288824021,-3972.5661147851715,-725.0206910717184,20372.719981534665,32765.976805640268,20541.45495879656,-2270.0878733805785,-3968.5372640202254,-572.015167240316,20236.344451984853,32762.92667896027,20540.360696014417,-2282.9386389241286,-3867.34230484963,-403.51996464681434,20177.30696519189,32749.520961018967,20544.521889497566,-2294.357989746444,-3741.0694941485613,-623.0651034625531,20313.971680489765,32755.48735805687,20565.056978462704,-2285.566575506978,-3995.8014343442483,-707.5700541602554,20288.647472048735,32760.277889744568,20557.184491566157,-2274.432551307885,-3974.0927281673426,-373.673472688227,20616.896704285,32768.5286402883,20548.544926080634,-2261.260766945563
5084.0,-12328.0,9040.0,27478.0,19593.0,-3794.0,5098.550073716367,-12123.856331026776,9125.70203520802,27488.404550369498,19594.029740769824,-3802.4250921609682,5127.040272076195,-12451.378095579359,9037.58396670779,27471.192722499854,19587.37501871295,-3795.985182685027,4951.8830835030285,-12414.95146694909,8924.407656304793,27477.200587915533,19607.32305541914,-3798.2081124866854,5118.442569747675,-12351.480225816736,8936.662665753578,27480.01479255533,19585.81445983329,-3780.1785289241657,4927.8631787070235,-12317.021413053388,8993.043910132925,27483.51113673848,19586.525134419746,-3795.7559242085313,5021.548240384374,-12273.828566196156,8992.74511834918,27461.363330295597,19597.73306719787,-3791.0395119781742,4974.26497075981,-12457.89370477798,9017.419429334546,27475.829046187104,19590.91249123092,-3780.623945227481,5009.7445034907905,-12386.283885571347,9009.168183143178,27466.36366838996,19584.883122349107,-3797.692185986063,5064.840889372131,-12398.207114950228,8908.823397712102,27490.276800354954,19584.160405990442,-3809.33238392236,5310.218004043378,-12415.458225137101,9037.327885019324,27484.593741475943,19594.732786989487,-3789.3109303309616,5183.384064871346,-12181.588466753836,8813.49995609101,27460.781797316755,19581.64537942514,-3794.817106414212
7804.0,-12524.0,12344.0,-9198.0,1693.0,-27.0,7780.961126090223,-12604.49090918507,12175.259308050503,-9195.402277116098,1694.1139401404787,-23.605813592853956,7677.351500332253,-12503.774011524274,12275.432006996514,-9198.744808981775,1692.7580912214146,-29.08238160364626,7754.834927614875,-12455.674107963776,12441.039165357988,-9198.727422861677,1675.3839003547819,-27.87134358194777,7788.607467666228,-12463.195689718239,12328.858724584463,-9194.120866900965,1689.2581086501448,-14.933903524834653,7749.838837264496,-12519.637363325484,12410.092859068169,-9187.225796706489,1711.4170650689819,-32.4296374694227,7775.675626815714,-12300.815762324179,12370.948889358682,-9215.980842801293,1710.2803802760643,-23.62389343782561,7623.473543143699,-12276.10117668621,12430.654543398066,-9202.235115608135,1683.9578883682157,-27.19317551083693,7876.874987104923,-12666.902158265508,12242.105748160031,-9198.451420983822,1688.9666298191955,-21.02218998616948,7823.673247801017,-12505.825967737572,12297.59258014038,-9206.381761505521,1698.4598137434143,-26.204479818028297,7586.4382140966145,-12606.808435799845,12317.733697544445,-9204.512968527146,1694.2551198546655,-28.715028893927936,8003.989035304291,-12418.949564091894,12293.052381110927,-9189.557637787231,1703.938889102391,-4.640502157802935
4848.0,3264.0,13620.0,-28391.0,-14920.0,5498.0,4801.598934083495,3268.740190431816,13743.039604135305,-28401.09452613489,-14921.220763457084,5505.54250953763,4868.746776040943,3254.931464193193,13525.795837331503,-28400.17432835918,-14915.706561389774,5492.16183037539,4701.95759894348,3247.4794760987006,13552.545554656373,-28388.399050612064,-14921.43982209378,5497.5765401381805,4905.903977009189,3247.3077210152956,13529.261333303748,-28383.536970803907,-14916.686607069058,5502.15299689574,4710.066983204205,3265.1443057457595,13684.827386593817,-28411.94526255541,-14934.059372021933,5505.375978246345,4764.579608256166,3321.9026120011004,13552.038245500073,-28390.89105339221,-14912.106483541496,5479.71149378449,4961.319967488225,3233.8185584933253,13582.187167046115,-28398.621034140215,-14915.716106553195,5508.7922115428555,4910.517200704209,3442.962644382358,13549.454867884604,-28391.56342724942,-14920.157631112132,5500.510438021768,5018.727519549018,3156.6396296283115,13617.696292244527,-28408.606284114954,-14905.320711017346,5487.676840595668,4916.290923517363,3176.490698690594,13647.424882407824,-28395.545758992863,-14919.78606896553,5494.004597988862,4809.749385610011,3253.0810537777056,13612.26452849653,-28392.982390585294,-14927.427528718075,5494.921170890051
-3372.0,4972.0,19180.0,-5582.0,-8095.0,3002.0,-3363.0479718408046,5115.562213815122,19359.627447075247,-5579.038638976796,-8094.717438740584,3026.499662675781,-3421.438925376087,5071.524058292335,19307.93219559377,-5593.000258063464,-8100.2808527205725,3002.310985500923,-3352.0354485666926,4941.0132379068655,19169.665745814982,-5580.9233613777415,-8112.895122861965,3004.9124256419154,-3392.407012724921,4849.717310605658,19021.624560984415,-5576.308606929363,-8105.952379964315,3010.6077101075934,-3537.4088948976014,4910.666956722526,19120.06808840486,-5572.586637003434,-8100.700333050982,3017.309044835953,-3352.2244979786005,4927.9582017857165,19187.37392091347,-5571.737879957374,-8101.238180910277,3012.16764047062,-3303.1712649875317,4841.0026452193315,19035.69235174271,-5567.681733236809,-8085.021918208636,3004.1199935312793,-3340.5420169549925,4970.75327773101,19395.002300133492,-5576.213635238903,-8074.818509112048,3008.5212551212426,-3233.5083404853185,4738.071162453785,19148.89276105937,-5581.368442203448,-8097.982289002247,3005.5080470883554,-3426.5347303423086,4898.418232882079,19303.538140217046,-5582.388395753383,-8100.220434802897,3029.451967628289,-3436.2620763009086,4996.789273626533,19044.240001858,-5577.400729980375,-8099.628869284058,3003.3797313193686
-2540.0,3932.0,18524.0,32767.0,6967.0,-2352.0,-2614.406670824079,4010.7730431897176,18353.023901802124,32734.667489695938,6981.083924417279,-2349.8456603745476,-2577.3115170604447,3942.714745885196,18571.41223524116,32766.121659911612,6945.245004855938,-2346.87297853795,-2599.731997694959,3845.5611107338045,18510.729654307383,32776.98810385536,6958.851053587201,-2365.4877756432493,-2400.9953140356324,3971.835164585654,18406.262936920182,32762.294401903328,6951.703661791617,-2352.1661667444832,-2657.6014606154727,3902.7709857728987,18518.450880005097,32764.56436002347,6980.810418824843,-2348.8744725311185,-2463.6326764481387,4048.1660724093954,18420.968517671863,32773.06682053221,6974.118272794365,-2351.870801111283,-2415.401144940808,4015.6461115807924,18588.511375262733,32756.836610834638,6984.348361105474,-2352.53060967384,-2545.531016135452,3964.3437745980746,18508.744156274995,32764.589520713645,6971.28513914655,-2353.748118647818,-2605.2263774737953,4061.236129919117,18549.284089198456,32780.88074464801,6968.561736255758,-2363.9459847996945,-2572.0133883356693,3873.7561094048733,18623.978419216044,32765.48345857698,6978.415880410548,-2365.966372298634,-2396.663421480307,3899.4382064915967,18518.544068597257,32767.22177719975,6965.708106004194,-2344.87604120392
-940.0,-2356.0,18496.0,32767.0,17285.0,-8697.0,-928.8611802035134,-2329.261192963048,18564.14567017983,32749.645374041032,17298.704802690663,-8695.831706725397,-1094.5474917175077,-2427.0530363875173,18405.78045880274,32766.324469514522,17275.995887429905,-8691.290214937846,-923.8167819415224,-2346.1621883859116,18484.856940855654,32761.918101359395,17276.668840497376,-8703.135762286925,-818.7969950045695,-2254.2286668678403,18485.849634111044,32766.60839026862,17279.780599297006,-8692.948170546122,-924.9077408061075,-2278.038721490347,18450.05330943825,32754.956335038314,17286.668162538335,-8696.386714193171,-1006.9463480169908,-2444.501227258947,18565.87361379396,32763.788137804506,17272.48385424919,-8679.093064251794,-1069.303876452803,-2434.2941919895607,18710.543877802313,32764.129306834406,17272.432951620307,-8687.683268353421,-925.5984748055141,-2314.801761107376,18571.60187583432,32772.36216912666,17290.23356755559,-8692.991155602056,-936.8906615507353,-2407.2277251934415,18557.2623486014,32767.93582326545,17289.43951837937,-8688.181619893625,-1082.0772076458975,-2316.502901611589,18549.816997773247,32740.787594693444,17286.31705819833,-8694.954047623356,-1008.0532743463034,-2503.7769281894134,18391.26599317291,32781.55934438159,17279.05517783158,-8687.284100769795
6492.0,-11836.0,15468.0,14311.0,9682.0,-588.0,6392.381810231659,-11853.572378152907,15490.399682906876,14308.78269889063,9685.364229417648,-589.5356966909579,6711.949749648112,-11908.395194903083,15389.903417759442,14313.815646795581,9679.641257826452,-591.7882177689044,6542.095446937409,-11855.920626067213,15450.201575359179,14305.303972171318,9684.490657972035,-598.4982371951103,6295.281984936965,-11808.521586881283,15577.950594237473,14325.230116249504,9672.923143862034,-584.1888534078502,6407.587620448399,-11802.179533690376,15594.426791300786,14314.643830905423,9670.473942794857,-590.159193397451,6460.847591928348,-11853.167826450834,15538.303961986312,14312.077182622463,9662.284915673516,-577.6954933096242,6454.887728757534,-11627.762939159067,15515.109901810945,14318.306800166187,9669.678213675174,-592.0755349226836,6529.590573279354,-11834.34988365528,15335.934149157745,14307.413520715545,9689.313735801145,-573.8768645531879,6494.074943930134,-11937.439295419876,15437.619563945613,14305.483049426433,9680.391008257242,-595.8727311226824,6359.662394843601,-12041.173361151381,15366.701786091218,14293.618650274697,9682.874730879445,-583.758591752683,6549.857641545766,-11921.017165280738,15475.872461353876,14297.901136232429,9680.034676576572,-584.1750986833866
5520.0,-6068.0,17684.0,-15896.0,-8402.0,8467.0,5439.050760696072,-5991.600512702015,17500.93866929813,-15877.752606873504,-8399.120314608565,8463.915561723317,5520.912292790658,-6020.861091065032,17703.948722363173,-15892.957225121445,-8400.851816231945,8465.414915572814,5568.810212367603,-5950.732100350284,17849.965006010458,-15898.883694323082,-8408.827462224974,8469.609737396431,5667.908154890955,-6102.16735248612,17654.79759961812,-15893.469718138645,-8417.414395027674,8464.553223273186,5589.100864385351,-6295.762711894845,17651.396274991723,-15890.812751396277,-8392.887246805647,8471.242121296438,5496.9754473941975,-5955.887693280347,17633.136557713224,-15891.341305183538,-8414.118943112215,8465.093024459926,5458.884705081223,-6025.492197119115,17745.14890178307,-15884.752282710215,-8401.389462361964,8469.846717085078,5616.2267139601245,-5827.423271938051,17704.658477614368,-15892.060348727366,-8407.007811653257,8472.673363060121,5428.983629448049,-6006.921739277066,17705.326700059166,-15903.380690925285,-8413.29246806808,8462.459961083312,5616.938983704786,-5927.033544273583,17799.575911914842,-15882.244627780074,-8382.691616183525,8450.608865841106,5462.102775127978,-6083.993333957651,17427.68757590348,-15894.381212750726,-8404.15856974837,8485.355900254548
304.0,5212.0,20772.0,-23684.0,-16982.0,9160.0,344.3649972624707,5239.025549115724,20645.890061475046,-23690.632054081398,-16980.560615290222,9149.557911212676,217.95769564282656,5336.120653737796,20795.205174803705,-23670.37604892516,-16978.048130411404,9148.020364811342,330.6867043274035,5343.8500185426665,20605.79190290689,-23689.0979316284,-16989.83428238977,9171.33538904477,450.90873057322165,5218.620640977543,20790.65918900836,-23691.58580861989,-16985.951865094947,9171.964891722231,303.20258047261234,5252.220966670531,20846.234634018776,-23677.29468381168,-16984.32875000424,9147.53061405761,285.8059189569681,5277.24376645151,20670.02242287376,-23686.396914680212,-16988.39764554583,9166.47937064223,222.81947689984867,5212.094114508749,20666.275930260348,-23683.843027962546,-16971.94170549142,9158.823467316106,298.39811839146483,5159.013361178497,20777.093312912246,-23689.505342219083,-16991.676950009845,9159.891922126555,228.8546468710822,5128.97061109121,20841.79285760223,-23674.093014193462,-16984.70309007574,9148.367155856678,201.10319293075827,5165.493533662043,20548.91530517425,-23676.165755766327,-16981.36148483594,9155.603505655848,270.7913471253571,5083.160529331467,20796.103119819858,-23671.280826515827,-16982.45604178215,9154.057023289712
-2600.0,7032.0,17960.0,3242.0,-3302.0,2586.0,-2665.7043505352144,6998.837488655451,17929.623200303322,3250.2364867206365,-3298.473938332599,2589.53292257916,-2445.560153561474,7049.608364922554,18110.58469313124,3261.260024849491,-3284.0050507643828,2593.539728204703,-2693.070840294304,7106.326351057777,17947.177681765606,3245.836662953801,-3307.0303729759426,2589.110307195487,-2600.1281246842836,6973.661002235717,17942.73436773604,3234.8577518666125,-3318.730205381428,2591.0544543220053,-2624.469718584135,6982.841113403182,17926.044072484863,3231.093066404241,-3286.6251812485425,2599.8076529292584,-2679.6721836279726,7117.012980852169,17970.51003786244,3264.038841234501,-3291.149356680799,2601.9760868195967,-2692.4278922437866,7193.025817025851,17962.603330241393,3241.1577640484297,-3276.6883647753907,2587.854317456623,-2702.46997373925,6985.287708927324,17884.46100814909,3235.0968794623186,-3286.4429810326033,2589.2918821903963,-2657.3049140551516,7032.12267838393,18009.760015884665,3233.201790591375,-3298.1760290909137,2584.6290858161046,-2670.6072216331677,7025.028630143397,18019.960186203352,3245.9175238276007,-3300.8068498894236,2565.5988438471218,-2470.593422787092,6982.716287952237,18085.953946123387,3231.529853964019,-3302.5175936205856,2574.251743464821
-1452.0,2696.0,19760.0,23009.0,14457.0,-2970.0,-1416.486929573874,2616.3062497729484,20003.238803535165,23011.031944397848,14453.51356010651,-2984.3240958155134,-1556.8975265989661,2563.5187317001323,19648.280440883427,23003.853245478524,14472.725780333876,-2985.573986984816,-1311.168913184843,2477.32986056156,19736.151031326794,23005.741305883366,14479.270067150643,-2972.206684801221,-1534.1329719071537,2639.6426963447034,19830.781055700638,22997.676797072225,14465.608431874034,-2952.664977721889,-1290.2379806230283,2557.008379973004,19791.434278834262,23012.47980350987,14449.764700232021,-2985.851362255683,-1432.6512411382862,2661.8050077893386,19817.377770001305,23004.370911065314,14450.954798751834,-2963.0547812518707,-1163.6529805932582,2629.2880261622627,19605.76705555067,22990.056780586197,14464.321934045465,-2957.6607589666,-1447.5991673250444,2691.088325466607,19767.766649316374,23018.123112726047,14446.50923326881,-2961.166553602863,-1539.2972391437052,2594.621233968869,19670.03909260008,22996.975788187574,14456.555281001434,-2999.680535792214,-1419.8912239744257,2826.190894790424,19848.702132364,23012.976043409722,14443.682214172493,-2962.3079353336657,-1406.2510148286456,2673.470104382226,19720.10595404246,23003.684768814397,14459.86947969521,-2982.6277576029142
1116.0,-7420.0,15468.0,18951.0,17965.0,-4405.0,931.7711546859388,-7320.443111954302,15364.58967147496,18967.903772402085,17953.519901345513,-4391.817379843553,1155.802379993223,-7529.98043812094,15503.01548514661,18944.00609097635,17975.487726477688,-4400.677268945181,1122.023710534637,-7400.559912649325,15552.18223976453,18953.234176114805,17949.62433084177,-4400.107822666264,1229.5283639430952,-7334.857920366901,15521.44002162299,18938.212991297223,17975.46918183251,-4387.97042098878,1140.912405181831,-7512.238572782844,15500.25040557924,18957.43075279519,17950.368449092693,-4395.33666336315,1201.731214646911,-7400.779044727149,15352.425032954032,18954.19947174667,17964.353218528922,-4420.598805373694,1037.9520053742244,-7409.331117761633,15479.907592053767,18960.899113842956,17987.299938618627,-4400.676526164665,1179.5947610849232,-7413.235060758815,15529.61490469515,18953.154288341324,17972.434835218315,-4413.255956977351,1182.0119964101596,-7641.867582255014,15435.512792660405,18936.425163781943,17964.838416794813,-4402.747836795151,940.547402044616,-7190.4290466895245,15532.739997688766,18939.536831279253,17954.652290415084,-4423.6899400514685,1013.777908570361,-7494.654099738113,15520.052054466829,18963.58862602846,17954.896508064365,-4404.395384787863
5228.0,-8260.0,14936.0,-6186.0,4120.0,2938.0,5253.26620105188,-8262.62101073179,15116.435211554151,-6198.674497246092,4109.415037581093,2947.9527862984346,5378.990414591404,-8346.33716640394,14982.143232610064,-6199.821030894657,4126.307708320586,2967.0823700974797,5135.3471631385955,-8242.379913442228,15145.294388390927,-6158.612056866823,4136.216800167318,2936.717747918375,5205.380238734929,-8250.514659557612,14949.216947620396,-6195.034320073789,4110.680968495671,2925.273706490233,5274.638849337533,-8417.537782116053,14940.554028838153,-6175.239547899009,4109.55905617052,2924.052342353592,5328.614946894147,-8259.388525191967,15018.82458419541,-6178.746728483578,4128.790751090476,2933.918879484625,5276.508597563771,-8293.285202692787,14906.664972010762,-6174.24003772568,4110.7454276024655,2935.462453426428,5296.149378595183,-8214.992741004678,14821.970082224188,-6176.340024226297,4127.45873139747,2952.2296187839006,5048.199428456836,-8262.313323969125,14915.710060860663,-6189.898272070873,4115.169135276571,2943.2024199083353,5125.874201362337,-8272.327145013172,14803.571767403373,-6182.484389739272,4098.345751531747,2937.7178117629246,5179.910875255023,-8246.16845155631,14917.124607672575,-6191.136216727659,4134.784540300543,2943.271406558989
4036.0,668.0,18504.0,-22335.0,-10850.0,9787.0,4077.24454233373,531.447396220788,18462.415924469235,-22342.382104871318,-10875.253222681737,9792.492497652263,4065.5710026142633,859.7774814467762,18599.317845825077,-22346.9180029582,-10852.970731102107,9788.301574560499,4071.5417552861736,425.7495798948399,18508.958639309756,-22341.372025063894,-10861.159171564377,9774.56272471848,4057.5838022014486,836.8684866157082,18483.182874100403,-22334.482705199345,-10854.09852096894,9797.229951677642,4190.884420323259,724.7067498104146,18585.043675801182,-22337.157126881793,-10858.879162770112,9791.497116990206,3753.8565543541827,805.5549136622961,18464.81444079814,-22354.9381316879,-10851.78492565938,9780.778760402374,4005.172468255275,843.9079490522302,18404.52699947201,-22341.27149697957,-10835.750195619306,9798.343440822851,4122.138802690241,656.8981630969815,18537.40144044905,-22342.76066150621,-10865.394763422732,9777.385438122972,4203.424366542255,560.8796733968254,18354.826201577867,-22332.50694063423,-10850.324058552203,9796.391711086222,4052.493322650582,567.4914200135023,18620.006316318042,-22326.725833528697,-10839.979905188984,9781.628103729427,4138.243453900771,632.6913069821408,18467.670596947264,-22331.737176910334,-10837.872974923936,9797.922012712397
-1580.0,5248.0,17468.0,-11432.0,-11319.0,4596.0,-1559.091104578243,5351.027929868692,17454.245530106757,-11424.515405500206,-11325.499930342621,4591.708252538067,-1671.4063498374826,5335.756980646547,17458.945440581443,-11426.18700816979,-11326.764832986193,4607.65111979609,-1504.5821459136378,5247.358660282074,17412.819579438266,-11424.793507885584,-11297.534432189806,4592.529044696974,-1737.967886821158,5171.8648557407705,17393.00878030105,-11419.015831326084,-11304.108408447677,4581.397399384944,-1685.1782656302519,5224.650294542209,17614.760337480464,-11416.26547194551,-11317.553666528192,4585.64943888879,-1505.14326697359,5299.761721075688,17577.532493935647,-11412.997147173424,-11311.06035066084,4585.239757969937,-1650.4093349433736,5248.964995288927,17382.02299851354,-11436.134763189004,-11319.35418231162,4586.365702048525,-1805.9709958807478,5298.873357388911,17444.471108169313,-11430.480892342537,-11315.61671241747,4600.515664676466,-1671.1915597903999,5231.450547451095,17395.632253520012,-11434.73384754118,-11317.924376217927,4600.227131272533,-1677.9306952865877,5211.7735779561945,17545.189027181263,-11432.394472375208,-11316.187740165578,4582.676912832779,-1437.0326038458738,5225.431943179782,17435.13735615652,-11426.15011040921,-11327.602355749688,4604.6789610781225
-1380.0,4380.0,16448.0,16696.0,5468.0,-4198.0,-1473.3220960171054,4420.805247511082,16283.063746900896,16711.15567527728,5471.654470506785,-4202.785917525795,-1393.0815452206054,4472.1613410971095,16662.57889541715,16706.673637791588,5469.541568992807,-4212.581756547519,-1394.4180886615588,4441.097915113351,16392.526091855692,16691.579125008262,5460.7460750712235,-4197.291478169277,-1293.9788039745458,4448.0614196482575,16464.654541494532,16702.740670134448,5479.6004055344165,-4210.963629879446,-1587.80208146815,4309.3675734924445,16413.34821398664,16706.637446930177,5456.068710655666,-4199.982253589931,-1294.486060634972,4343.380013208493,16389.362563112776,16694.750154249337,5458.830184083402,-4194.370416755614,-1456.243158636913,4453.508966548281,16397.079075964662,16677.24970814003,5461.917318161213,-4208.411580445874,-1342.807352488169,4368.814031287644,16452.57798311965,16694.054408025233,5466.442205641206,-4196.527449442336,-1489.1391334782038,4425.755289392643,16438.016171073567,16704.907913630246,5470.355795874047,-4189.685861101322,-1377.2697020892465,4474.024775343837,16524.640889057082,16689.95053221261,5471.125093801919,-4187.709610813296,-1375.2708651171006,4415.638512788148,16454.919456782285,16725.105285939677,5459.020442353044,-4187.805275458245
-836.0,-2264.0,18524.0,21565.0,12821.0,-10223.0,-908.074619690353,-2235.8059056428974,18707.88634815324,21547.87568604405,12828.676319979539,-10234.458128478089,-789.8088076942461,-2059.3104764242635,18404.641127629428,21565.278262317628,12811.374591452042,-10219.90796240376,-750.9465155949715,-2166.7223576867614,18368.831467076045,21569.184285588104,12798.483519042185,-10233.795005207197,-950.259960376218,-2336.3281253796745,18325.38628127163,21582.63135841293,12810.060131601314,-10228.64278647338,-1058.690971320231,-2390.11516439572,18544.97342961567,21548.78525681667,12829.280395669088,-10217.806284906303,-842.671443760319,-2353.334126019675,18456.861064893517,21559.893756960824,12815.314637236414,-10214.968781160138,-956.0657754066704,-2233.532521497034,18503.304638660422,21573.3832207371,12826.219331275066,-10218.297986098501,-1025.2500833792924,-2191.166417819544,18558.059414860785,21565.719110352624,12815.57715808302,-10227.72835494584,-700.8268551544384,-2505.086526916657,18383.113957944475,21576.566295807577,12819.130069961047,-10226.363335080952,-795.3215304907034,-2381.0081584226327,18471.451166221374,21578.715421758934,12832.490912915755,-10230.908200789654,-793.4457177019582,-2128.7218737571416,18502.32746770366,21558.183641610314,12813.06005630836,-10222.578259967224
4416.0,-10608.0,14804.0,9065.0,10237.0,-3494.0,4397.960466914916,-10578.614902219486,14778.044163534048,9069.306576617086,10225.940043437478,-3495.3348152416565,4306.940849296454,-10723.22931711003,14697.541833509013,9063.319833851923,10231.424640559118,-3477.5079273628476,4500.910076349054,-10581.053031144274,14711.093474997271,9057.735455367943,10220.750748477305,-3506.1159756270226,4433.609830578312,-10676.348141836985,14872.35444715152,9076.382823413576,10238.748308171784,-3502.881021148011,4360.638426999988,-10557.029346155176,14757.397262645434,9060.575523056485,10252.722700398266,-3496.061915310882,4570.086304695796,-10609.60120281025,14677.139236533667,9056.142771766412,10234.18023983396,-3495.6208982852704,4249.257292259158,-10553.164010364457,14809.051945028597,9042.058996100692,10229.597013728646,-3489.8657919688153,4459.347786443501,-10658.549765416332,14759.997202522018,9068.251184216186,10264.32025944605,-3490.380701633876,4265.943610295526,-10587.002588225567,14861.823963394902,9067.091783737846,10243.967041795247,-3484.6344579584515,4348.11198413819,-10559.458301111299,14742.184541769178,9058.8321178909,10218.861231232206,-3500.4077627761744,4415.975028914534,-10545.84459845881,14793.815992423974,9074.939830207773,10246.714347882706,-3497.2987209091384
6016.0,-7128.0,15756.0,-15902.0,-3897.0,8198.0,6033.415416473996,-7192.124201303682,15700.308602118374,-15915.021233284942,-3901.3478572946547,8204.40118375789,6111.576411901943,-7009.432495929228,15733.91453598196,-15898.96281225086,-3896.9240404399293,8191.710259647524,6132.331712375948,-7129.441189846701,15692.00839043841,-15905.026431867213,-3900.5761806509977,8204.36087922823,5794.028055353576,-7083.910767891384,15839.289416129539,-15917.586131128935,-3902.6337290691094,8201.382556796714,5932.7477640753505,-7249.317679323764,15647.19105230339,-15897.727618409137,-3890.714747943353,8194.408331173847,5877.681673727282,-7111.435782879309,15780.86150634945,-15897.870232065457,-3896.9259652625915,8202.249862926616,5987.979829315226,-7036.912880995179,15992.4066237619,-15906.549553275314,-3873.8816759443316,8193.709390890932,6021.379359157004,-7191.5511162927,15729.206811986698,-15897.161848354612,-3895.150936666095,8204.90686829667,6054.349543492708,-7219.745723386514,15601.180096021675,-15897.924464322878,-3880.3945510251556,8197.412772937278,6042.125296442809,-7132.823446449017,15888.661697177477,-15900.13248901677,-3887.619722205537,8186.909469197271,5964.496461308611,-7056.291036492542,15762.972047333004,-15883.126194063227,-3905.0740770726657,8198.313400931964
3176.0,2680.0,19992.0,-25294.0,-16248.0,12557.0,2981.4251126983377,2797.6092847460754,20062.56622126241,-25301.939778288965,-16257.44801936427,12572.78042602966,3230.3709426814685,2715.3376479700146,19956.068909740432,-25279.917260135546,-16240.402244013718,12550.355322926256,3391.603388962245,2633.721809405941,20034.025592854265,-25278.66486991595,-16253.719252352033,12556.86826075069,3195.1112307091025,2718.226785610444,19998.62669486924,-25300.74797122072,-16234.028046410964,12559.783006173411,3199.6662043382103,2552.5920812921017,19913.608080591548,-25300.298078987133,-16250.820021423688,12566.646576025752,3387.40920109654,2762.0746370068828,20185.798633638213,-25303.8474221601,-16256.746513700187,12545.148014837348,3094.1344941662323,2602.3723933701363,19896.152733177343,-25293.741412493535,-16254.36911698782,12569.903291551296,3242.974869515477,2540.2637551983094,20064.629849330817,-25297.48984274856,-16237.622090365925,12557.118125658413,3064.7149660634323,2701.744327571932,20064.83042469242,-25294.353987761806,-16240.264952523703,12545.541595867,3092.3905661043855,2849.192465296576,19961.580163174305,-25297.48639402613,-16250.924529639069,12567.12830086077,3099.534856477003,2597.5885558643236,20073.249897636204,-25308.85822884283,-16260.558363527954,12552.528048699613
-2644.0,6920.0,14640.0,-11250.0,-11538.0,1207.0,-2745.2575054601402,6956.810397009529,14768.092867155341,-11260.724726994813,-11538.092250656371,1201.2538263937536,-2603.29996329916,6879.158054137842,14760.366800045278,-11254.85346090509,-11528.422968468418,1203.6813874995014,-2597.174995470378,6986.030544100207,14728.806394362766,-11241.606311682472,-11524.558636307742,1218.4881603664855,-2871.557937700902,6984.188176169282,14626.485414107658,-11242.124475263217,-11531.83926068474,1203.3383133458558,-2604.3408028736285,7062.233105309338,14734.955866081284,-11256.114478857924,-11538.029893768087,1194.6365719468474,-2694.032977800662,7047.719116139882,14578.677653269793,-11242.861374887429,-11549.728979232748,1215.502346096157,-2728.0384626623754,6982.0516887858685,14426.350056876581,-11264.865503068793,-11534.9402909985,1183.5226924971282,-2819.1549095144737,6926.32013455576,14544.374452568265,-11238.263931754624,-11527.205101873784,1204.324259044388,-2796.4919602215255,7018.989993642377,14603.439160874843,-11258.962977006538,-11529.861496930842,1221.065068301351,-2695.2405253010666,7031.954648846221,14647.425174703954,-11266.63860103145,-11554.57842093899,1216.237213424616,-2677.761798634891,6731.656025240148,14727.151009023348,-11259.428476568166,-11548.15742647441,1209.9259240983026
-988.0,3788.0,17168.0,20234.0,11079.0,-4757.0,-885.3656723901446,3810.210447323589,17038.59763417946,20234.53590900199,11067.853831520719,-4755.489448937107,-1004.598221954756,3701.456431676369,17021.87180104954,20224.727828354808,11082.084430726503,-4750.555010142344,-883.5989487497211,3726.1102690145294,17204.348299420955,20240.178842693396,11047.841787856558,-4770.641191717097,-1021.9979166639212,3719.4252411244092,17268.381039143856,20220.222557822573,11081.376362189798,-4769.764306413711,-997.4738045838844,3873.2881743257267,17058.02978609699,20247.295907104148,11077.420791421495,-4750.021620639585,-1107.935076170195,3987.954083600135,16978.971277595927,20223.289704333492,11082.650236486736,-4768.5760533041475,-1105.2440046437848,3823.5465590394956,17329.654968128478,20226.18534414899,11077.178906739511,-4766.6980727765795,-1240.4367093768985,3656.71236067063,17108.125726476283,20240.43470696063,11083.407067908747,-4751.424369927638,-921.7372499900159,3705.2418827266774,17210.514036014705,20217.684959441023,11094.872896051767,-4740.740240181507,-870.6453747805333,3650.6906380525757,17065.487299638193,20230.28862990593,11082.768611641339,-4761.0339909092845,-792.9817130385375,3825.339154992087,17024.579698652393,20234.986292241087,11095.536693535993,-4764.003428506477
-720.0,-3016.0,19000.0,24007.0,16267.0,-8654.0,-685.4310482638267,-2976.5382901865046,18955.251989433287,24017.37505969501,16237.188013885932,-8647.585348436985,-633.8130749129075,-3098.4231786432874,19150.57825055121,24016.207731342452,16274.757633363803,-8654.499822465224,-602.0387449229138,-3174.669217445596,19067.992097098973,24007.546104296638,16274.13783264241,-8637.270915164929,-771.2285963540991,-2808.265410774255,19220.694775463293,24008.561847116438,16255.11724948319,-8659.807899189067,-786.5174070921848,-2981.32266223107,19090.424595725497,24008.864134574116,16266.352260875217,-8657.143375030982,-482.6364397014003,-3077.3544097125705,19002.31944937047,24026.245503446236,16236.826848588133,-8649.902438200623,-678.2565526005983,-3007.517237543368,19101.348823866567,23998.566727905414,16263.928246727293,-8665.366183193408,-690.2253841837346,-2965.0291178544585,19056.27834903207,24006.590130128116,16267.183841502372,-8639.513903275807,-865.6382414237464,-3068.372693131542,18970.988888496453,23978.864491812074,16282.843670382601,-8659.228124020497,-888.5579548651989,-3004.848065216654,19049.353869936735,23995.336096851603,16272.62437544368,-8668.245221458228,-640.4371857540502,-2973.3896307782243,19052.496304938802,23988.41506841121,16267.89429701211,-8660.21055150657
2920.0,-11292.0,13948.0,10956.0,14194.0,-1923.0,3041.17487809125,-11414.580562252677,13931.045660893116,10951.674584985994,14192.568800033652,-1922.87878949993,2861.0155276886408,-11265.42119382075,13945.381357709066,10946.50864612886,14182.941420253645,-1912.9272285063719,3034.8524408264407,-11241.693761434792,13841.140447922906,10967.170200870883,14201.060344017968,-1916.5239924476055,2962.080694594338,-11112.35503412849,13892.763735052195,10955.69354448895,14191.60270411856,-1934.9697764080345,3095.0705434763768,-11256.756464588107,14065.860982213453,10961.328459257376,14197.318093327596,-1917.7742253880754,2919.0295805088344,-11172.478491058399,14034.998519022158,10952.680308377394,14172.223064959211,-1933.3457522915303,2897.512638933329,-11301.14719970729,13965.325568861315,10951.006376588992,14191.271308786105,-1919.227699554434,3151.8674254017074,-11176.028181564614,13910.473922229192,10950.128233069354,14192.783773551855,-1907.4628920963605,2801.6792168025254,-11229.494932653306,13916.91030694246,10955.208196853895,14209.600397013206,-1938.8016015948679,2924.611595859897,-11260.208926829047,14022.755051893326,10948.171686667376,14199.918537520998,-1924.3108606961428,2977.8115538613124,-11438.31077134424,13871.048922949189,10958.358280732591,14179.169708023339,-1908.4647108545225
5780.0,-6044.0,16016.0,-13853.0,-2790.0,9640.0,5655.207980631531,-6016.685791613867,16101.48162567251,-13855.604338047491,-2772.902012259134,9637.985025142418,5776.63548693169,-5983.585568985967,16013.936082389248,-13870.587635234455,-2783.765928161736,9649.621703137707,5813.314185507673,-5931.789885991981,15935.676307381347,-13852.349489905613,-2797.099117581916,9637.00844041003,5722.965357130571,-6092.388351296014,16111.517760965422,-13864.599062072062,-2801.0067459383436,9641.310320605251,5715.949882885218,-6119.4357231062695,15851.011616199272,-13863.069392599491,-2788.6673647017315,9634.639814966173,5895.388639768216,-6024.952174603663,15999.772443525737,-13865.6478305211,-2761.3295339778674,9634.465087466097,5670.086375909589,-6029.144420304566,16081.299498941624,-13857.094774807514,-2787.0716161953787,9636.670754448014,5452.5282442699145,-5858.583019218249,16002.647190179421,-13856.485634105211,-2804.7273807028596,9615.165148239716,5671.606437904393,-6064.180097888802,16019.417279950272,-13858.10127928963,-2788.556409028635,9646.792334861932,5937.2571673774655,-6040.272213755989,16043.973013486939,-13854.384063271102,-2792.020611231011,9646.260551179765,5798.886759803577,-6276.944577294983,16045.747131287933,-13840.789079668886,-2781.965625733739,9649.505008973725
2444.0,2384.0,19368.0,-23008.0,-15185.0,12592.0,2375.6005443747226,2499.269560832309,19435.76181198852,-23012.017479973903,-15184.936409513566,12602.570956772026,2356.833777624161,2381.7126473442186,19434.194438993545,-22996.39406928902,-15187.36340272812,12594.964348085607,2332.0579639328485,2447.6041380658194,19494.98705201621,-23004.34034348494,-15198.015458214024,12589.029679908675,2225.8331596639773,2278.658483281473,19345.641997933784,-23020.02526392163,-15194.393058088604,12592.92563283363,2385.845047461126,2336.648278316865,19324.62358933686,-23010.197179475508,-15202.634170668885,12603.507217087867,2528.9529600636097,2421.3562394403352,19399.26113368334,-23002.008970809253,-15173.165890934288,12594.25903777201,2526.405145745483,2343.8503276221118,19496.011020562197,-22998.284912237323,-15178.27625073919,12596.509778804735,2538.9312137621223,2510.3176733354735,19460.72409854832,-23016.80273240422,-15181.39820608897,12587.602063252969,2509.1725178488823,2246.2808675500205,19493.200524748016,-23004.62151031757,-15191.364449115597,12598.280539140766,2438.3208304839304,2369.295661454635,19313.102347200947,-23016.34851564841,-15182.657254735333,12594.799637470887,2343.7665778871824,2366.43632692411,19252.206345140807,-23005.577511592288,-15200.895052119093,12599.96658095304
-2820.0,5516.0,18164.0,-9038.0,-9409.0,1371.0,-2673.994418439963,5337.463894283108,18234.353631256858,-9046.490098503857,-9411.273572397839,1375.7337729815547,-2994.5372222395117,5700.7456828188215,18264.394259497352,-9030.566195805133,-9418.473296417898,1377.8557490376,-2776.595777488259,5709.870919559343,18279.919597356286,-9052.391203667561,-9409.25450586699,1362.7778954392095,-2822.1942902225906,5370.215923392407,18036.823757430815,-9037.665058502867,-9423.152960575972,1364.2982791112136,-2910.118713185675,5532.690056153264,18064.04581897633,-9043.091350432316,-9399.011927663558,1372.6445081806949,-2757.4684929528435,5384.530776444456,18187.370618106226,-9039.84593237503,-9416.83455972646,1373.3062993333517,-2785.2016333523757,5485.671992119857,18041.780714716835,-9038.503691158487,-9396.762094525764,1388.7325653906398,-2661.8632289016823,5440.585547629368,18068.229400942746,-9026.144718227022,-9401.37563571752,1376.4311324889172,-2747.851730144628,5443.5026260443765,18077.020523909374,-9059.618893735864,-9433.329772590754,1376.7066617582832,-2890.3849630688683,5644.3634495264805,18128.819129435327,-9044.041122327691,-9414.640837664301,1382.7784006619809,-2887.611734943459,5585.5555030556525,18147.079851254395,-9047.199192659515,-9408.431915553017,1368.8606219498042
-2292.0,2416.0,17944.0,17370.0,8754.0,-6768.0,-2270.5440374990217,2323.5619350076595,18055.497478354024,17369.019959074725,8772.28640426293,-6768.3097535023,-2321.6302210545023,2374.924690616773,17963.767197185465,17362.427374336232,8752.40770739765,-6771.718690137843,-2279.751032303301,2441.535336222941,17760.18558329119,17371.95770784401,8751.896998494793,-6779.390873058594,-2128.1223941672824,2452.249121912648,18082.703871653317,17373.01827188418,8761.236468041448,-6749.692774545801,-2281.0547915095854,2458.087891848,18009.217177586972,17382.07858453735,8742.54340620842,-6761.237571174043,-2272.9121744638164,2391.9497601717794,17826.684993410025,17389.23848963473,8739.901001875949,-6781.330622372097,-2291.0317082476527,2416.0884275698263,17951.867537517308,17367.644597928003,8753.659303382065,-6772.470625907253,-2342.0757304044655,2445.4403685877537,18037.11263900879,17360.92974610472,8747.594677816147,-6753.541810334694,-2370.382814404509,2435.379300003225,17884.752807582667,17369.724855424705,8752.099121380847,-6776.56525960457,-2407.224044680924,2320.4071292475924,18001.202628421244,17351.734790657072,8768.022853969262,-6765.228826636718,-2281.1852067432037,2371.602855098484,17767.05287560923,17364.777067714567,8776.248663845261,-6776.831443400622
-1376.0,-2388.0,18348.0,21080.0,16959.0,-11643.0,-1269.9435184732313,-2434.255781131514,18412.743312654446,21065.790712280188,16967.38833492039,-11625.660733034627,-1449.7313064877442,-2350.302097340042,18517.324549184952,21082.916068944298,16941.78901739839,-11638.371549017309,-1383.140041472737,-2367.301019783327,18365.81545098416,21058.59044978235,16947.459605664815,-11639.472717394967,-1488.502294298719,-2444.45644478509,18437.391711156204,21066.27807792044,16953.583919851884,-11648.811387933125,-1269.4027210431957,-2380.6452837838556,18211.87366746642,21074.01549118801,16935.42020795375,-11632.761048651846,-1523.0932883837786,-2495.98074181178,18349.000667178498,21080.697133412046,16963.85287616671,-11650.363192997545,-1389.245090267761,-2419.5776725415562,18285.013264191537,21086.020506881847,16948.619169527094,-11643.068321013367,-1458.2787967557233,-2502.1791325011664,18375.929149645166,21076.522896292474,16951.374716889324,-11649.194429166071,-1526.5551828979226,-2351.904592394189,18277.501293946276,21084.35382064888,16963.2115671862,-11638.257288586008,-1403.8665997381881,-2340.9239512514623,18217.94346741574,21087.512252825876,16986.437415870372,-11657.466593029822,-1321.258611540367,-2360.8086578492034,18512.96127903594,21081.749570472748,16975.23088079687,-11644.902839382228
4040.0,-9356.0,13156.0,12705.0,12283.0,-4499.0,4069.4258447853545,-9360.399594087094,13069.154062668651,12711.484130680345,12265.896159306925,-4499.736592720566,4038.5738001390123,-9397.168033664195,13120.642229026904,12699.320653591238,12294.112566682888,-4490.087579404751,3875.530295784267,-9280.423556969945,13152.972598995937,12715.783716598919,12287.596749823826,-4490.000288640143,4167.328191110652,-9307.776903398659,13156.999322758547,12709.622795582845,12267.02795603236,-4498.227387521943,4011.8141940845926,-9404.020079078013,12880.8155975125,12706.91328200312,12274.963003439743,-4501.193748600235,4053.061235335775,-9254.754110822952,13257.904009858003,12710.413967356259,12274.935785592083,-4486.867454138661,3948.3119126099436,-9271.808115415557,13038.676554850485,12704.918236982296,12277.155142707656,-4485.77580248841,4071.5814619500916,-9363.89811994449,13187.157936322652,12699.311972103442,12282.341500493398,-4493.360449618451,3976.037692976726,-9164.816547261114,13123.562613321175,12675.366793347985,12282.478907032195,-4505.388263838975,4110.286920510612,-9281.988300364412,13219.260928275524,12703.574782870257,12280.878859804187,-4503.3001526909275,4033.718423532191,-9209.690284677492,13301.250970235553,12698.207755766709,12298.578329844044,-4507.437402263321
5916.0,-7456.0,14296.0,-5917.0,-1882.0,7514.0,5810.04000902007,-7524.293609416193,14358.912304165835,-5911.266913660229,-1882.7310959096878,7510.8477792852755,6041.112032444199,-7481.140294407306,13996.080176093894,-5936.189030887243,-1883.6958617986672,7532.0985371522565,5803.959716154028,-7536.094387899586,14501.974828236089,-5930.254448000043,-1871.4873565202734,7499.367458910177,5871.891678182361,-7493.615770032731,14177.05449070462,-5922.081820917395,-1879.201234511639,7508.792707919342,6108.453124952044,-7384.939841461802,14337.916886071442,-5911.55384226293,-1881.2818350370512,7517.500971362631,6013.023986620038,-7539.151563220184,14300.877545757297,-5919.6614000609925,-1893.3412411037912,7513.533020347484,5838.312334689932,-7516.390156390814,14175.3566209033,-5903.279833144387,-1885.308225425776,7515.172647156511,6011.042709864327,-7285.066566119816,14340.260189544579,-5903.318192592429,-1908.5969677455155,7529.447662720832,5880.639097615443,-7592.44997464225,14145.82090243291,-5920.59978957036,-1880.1130356186975,7517.74233077616,5790.189027033646,-7519.401808413828,14160.779710443125,-5914.380603541266,-1887.857750674011,7525.619705568406,5993.936478537486,-7571.378258884339,14345.196523430865,-5907.733094860993,-1884.441196620785,7501.993497899441
2704.0,-440.0,18828.0,-17722.0,-15137.0,10371.0,2694.992711042441,-458.5732140999077,18722.070536169183,-17708.10132868077,-15137.988429465695,10373.314346110441,2783.5186420358796,-522.8396391063787,18605.103958838612,-17730.714093928535,-15151.583986157217,10378.280407803086,2911.1105453032264,-441.5152258159997,18898.487070100822,-17738.55803537892,-15127.234526611226,10363.631146653712,2771.9593427317704,-547.0729074082922,18784.18261712725,-17728.24226993723,-15134.31050626284,10375.198521169232,2836.3941839455915,-481.1075675035494,18911.813847151472,-17720.884830881107,-15145.97175589202,10393.464224161495,2725.196056552923,-636.6484569118556,18771.908822408448,-17722.190577813803,-15134.884964069402,10365.438017212891,2713.4202234580707,-583.9834835885174,18884.24333297875,-17719.907291449606,-15133.809494478224,10371.115289188438,2743.990584632829,-378.2558354600703,18901.847285529464,-17718.66962870615,-15131.520217489231,10359.340629864213,2726.7964665192007,-248.72020913220817,18821.701204369787,-17729.001283858564,-15137.049353041843,10375.026205458962,2551.603899727365,-165.21546514680335,18928.04238833312,-17724.78912881102,-15134.38541659086,10369.033500573618,2655.700732880046,-509.15224448997765,18706.71804209672,-17736.41982929891,-15123.363149798404,10377.811933722105
