IMU1_AccX,IMU1_AccY,IMU1_AccZ,IMU1_GyroX,IMU1_GyroY,IMU1_GyroZ,IMU2_AccX,IMU2_AccY,IMU2_AccZ,IMU2_GyroX,IMU2_GyroY,IMU2_GyroZ,IMU3_AccX,IMU3_AccY,IMU3_AccZ,IMU3_GyroX,IMU3_GyroY,IMU3_GyroZ,IMU4_AccX,IMU4_AccY,IMU4_AccZ,IMU4_GyroX,IMU4_GyroY,IMU4_GyroZ,IMU5_AccX,IMU5_AccY,IMU5_AccZ,IMU5_GyroX,IMU5_GyroY,IMU5_GyroZ,IMU6_AccX,IMU6_AccY,IMU6_AccZ,IMU6_GyroX,IMU6_GyroY,IMU6_GyroZ,IMU7_AccX,IMU7_AccY,IMU7_AccZ,IMU7_GyroX,IMU7_GyroY,IMU7_GyroZ,IMU8_AccX,IMU8_AccY,IMU8_AccZ,IMU8_GyroX,IMU8_GyroY,IMU8_GyroZ,IMU9_AccX,IMU9_AccY,IMU9_AccZ,IMU9_GyroX,IMU9_GyroY,IMU9_GyroZ,IMU10_AccX,IMU10_AccY,IMU10_AccZ,IMU10_GyroX,IMU10_GyroY,IMU10_GyroZ,IMU11_AccX,IMU11_AccY,IMU11_AccZ,IMU11_GyroX,IMU11_GyroY,IMU11_GyroZ,IMU12_AccX,IMU12_AccY,IMU12_AccZ,IMU12_GyroX,IMU12_GyroY,IMU12_GyroZ
-976.0,2700.0,16844.0,1772.0,1270.0,305.0,-1090.2958414557186,2664.278980457983,16845.497026036246,1770.294081107783,1272.0604243296325,307.38948496657133,-984.8751952880826,2742.9959204635643,16739.763089849966,1767.597947549939,1270.1434874741913,296.0668736934247,-1069.90311365871,2702.0084826819666,16756.060696197004,1781.447360622063,1252.9129978681976,300.4218659901636,-734.7546161930011,2751.868090548106,16764.724154426785,1766.9997795627874,1266.7224511933293,310.0198114408445,-1025.9939069421257,2802.0045435478833,16785.335745381613,1758.7103344569562,1265.4045615618404,291.3200281872712,-1020.94628344571,2731.413492900133,16881.98165729806,1775.4226179890093,1252.701719498323,308.47002106938845,-1091.5469682855567,2827.4159258320665,16643.435199494514,1761.5143167763722,1257.9514763148227,305.32948738470003,-1100.643816732874,2935.1466319344863,16925.99894627927,1764.2932163203502,1279.9042498133763,319.3476629787362,-968.6390307158057,2639.1459649087833,16806.776365604906,1758.8384137416406,1282.4035878590685,299.5885183757376,-1088.701240984833,2675.944878166037,16975.97639484394,1773.3807785515428,1263.857766610064,325.4857984884772,-880.9023007862131,2697.00892903071,16857.289976279208,1772.0485239869283,1277.0542489008346,299.6660849301848
-984.0,2712.0,16676.0,1723.0,1367.0,271.0,-991.2031071739528,2710.9623990366354,16792.64334912401,1710.2477042369821,1356.7409495192921,274.4085141843797,-939.6991215831783,2881.281848740292,16603.077122737457,1723.5140045581027,1360.800780428964,257.51039597183285,-1043.4289323809764,2816.874455359518,16566.800294866385,1717.4612084864632,1364.863826212498,272.6055810139194,-1134.8911060968467,2617.625307064929,16639.333092287095,1720.3122958734039,1389.1378620773175,283.0332520626445,-943.5624332881466,2842.236659430413,16580.078198589825,1714.3893408168037,1364.9583089656232,270.67265415814603,-1003.189785027359,2686.0878038228957,16944.243370048953,1714.0880032500515,1364.6368563336298,282.01883951187324,-923.9226713122133,2772.8167587062726,16721.0984705917,1694.5068649975212,1377.1341365531607,253.87772744100934,-916.7843083367139,2712.082548243353,16671.402192161033,1723.9469611301008,1359.8142847192505,268.9046313711164,-859.8446557184681,2719.9376746528887,16801.04589544832,1739.7721849163472,1376.4278458294423,264.9365698462609,-888.0620396253719,2704.332904839282,16572.23852489602,1728.8839330502258,1361.1542847525727,266.3424626275722,-944.9755127082404,2721.5832893105576,16713.14030667911,1720.0661248092736,1377.9463893849584,270.39750357548405
-1060.0,2692.0,16752.0,1765.0,1278.0,265.0,-1031.5633302066838,2601.348679444594,16808.4771810411,1760.0573479138725,1260.4933193040763,260.3025326595669,-956.1072563936233,2757.2854656550535,16695.489301435402,1761.6312680071646,1266.468295135024,257.98903269691647,-1255.0942387937553,2770.729424368469,16872.471534570657,1763.111792350458,1268.1166148803948,282.29927634261014,-1148.111853302782,2794.783614685038,16750.346753310336,1772.6096205719814,1274.3778473152245,246.5051457961203,-1068.5574603747023,2766.832385415769,16685.784471233506,1783.0430563857433,1283.7112848598395,270.6035149458699,-971.8985437799257,2630.91237965853,16694.532345277585,1753.6174189360613,1294.8220278373255,251.0816252449328,-992.1362582373721,2546.341496340232,16652.602595737306,1763.452883012546,1296.0091315999327,273.52035079841477,-932.1537766764675,2827.6289192527556,16757.38524700953,1771.578632008733,1274.9628686224323,266.954661474434,-773.4067366221138,2515.0036485596183,16794.26279790448,1767.1383818641561,1265.3180643008245,267.65567188480657,-1188.8223296741517,2652.358087003413,16718.93582949367,1768.2281034479927,1270.7732259390998,264.43324359916767,-906.1016886563833,2641.688443170296,16700.17644912914,1766.388505122685,1284.720708063721,275.4056275555073
-988.0,2580.0,16788.0,1746.0,1294.0,289.0,-925.2779657382248,2519.1149871957987,16633.095049403564,1760.3021548170673,1285.4671972197425,293.12530959319906,-1096.5432817846254,2505.158264232428,16770.74360882156,1758.1373518473056,1300.190645140102,299.2774335491175,-1190.2735845107852,2709.5219901587484,16770.53589655835,1732.1992575276065,1291.31556926717,298.98628878127965,-869.6813823462775,2608.7711228005764,16696.333844039957,1754.164530726117,1297.4040811904035,296.3267996352388,-1084.8473813019693,2436.4629121618846,16798.360705754167,1731.0328373897396,1292.3880511931854,295.2206614704936,-767.0557252148881,2585.515171679621,16661.90760648437,1751.1193116815366,1309.182454471684,286.32123743207023,-813.3596073863318,2548.5423969389603,17023.059199759995,1736.9940913178662,1299.8093485426566,272.6770574814218,-1127.0706985478548,2634.7308669965237,16833.58757102173,1742.1147814163478,1292.346918940654,294.31136177931836,-881.1666554379381,2552.569306467177,16869.601644487197,1738.1499256549052,1282.4084383470122,299.72492844839167,-996.4278433115047,2673.5106333322196,16675.694217270575,1747.5560874980742,1303.6701015756212,300.2072968080495,-966.6712648874698,2544.071311541057,16739.516830085773,1745.2754810474362,1290.2487358022572,291.48412673244394
-912.0,2624.0,16692.0,1753.0,1321.0,250.0,-1041.0114617336828,2522.379736919617,16599.960938524364,1763.0335390148991,1318.7343617062977,258.118130928805,-701.2476703095227,2659.498435371492,16727.012441419716,1749.9714410208644,1322.9542157409178,219.23352850906036,-927.4149492220273,2638.774030061851,16678.978363427785,1752.5897249373247,1328.845951041836,251.7127794501867,-775.4439995113818,2769.8704966719406,16824.84914600333,1756.2426172673468,1314.1513156401031,248.5004790415391,-783.3327918639048,2493.618355561912,16727.3817669,1763.523525888278,1294.2562201249202,238.10577386132576,-1016.017404249638,2814.854632323372,16683.34633827011,1746.5841430734802,1320.9019583134475,237.61353670077625,-1018.4126914886793,2559.168126511477,16596.756347721173,1762.9875476431685,1304.6127828135159,256.019385673243,-890.3370705600038,2424.39717438041,16657.82812640464,1758.532501321532,1333.9635335410069,254.08666568843168,-960.9140458571399,2713.7019234332606,16825.894539205954,1750.6686512455487,1315.5011275989712,247.830755304148,-919.9831679490094,2909.674808871194,16680.215133239828,1746.3634824703217,1317.8114069719854,238.14430614435412,-858.1953112258823,2679.560856199729,16634.458364578404,1753.7037995330877,1327.6021031258717,234.45734006909888
-968.0,2632.0,16788.0,1732.0,1309.0,287.0,-863.1159058762034,2501.587335501583,16854.639976153412,1738.361502337473,1304.1303797116402,281.1750457467164,-1006.9648588757925,2484.8889968713956,17076.60388839246,1728.611167009722,1323.38385107668,292.891213079952,-805.9869781195166,2620.3352424082054,16720.20374863208,1727.4356514946896,1300.7017714052429,277.94880576921753,-916.8685663554187,2792.4483986120686,16883.777208358355,1726.1853980698943,1300.5757766143172,297.70104750583096,-852.1252616850812,2667.810833469715,16899.076547021858,1720.4588659267054,1299.4889938946487,279.2082703480992,-900.7071408867237,2710.989046038736,16760.386274769684,1721.9196045677156,1298.6393935344986,300.1045127361256,-1049.049755979342,2663.9017589871296,16813.84013717202,1712.8626589234789,1290.3742218857374,297.08577287743555,-1090.9247404186956,2714.855934171414,16727.784284559773,1718.8574134600863,1309.9692207818955,288.7297725440644,-909.9634411118061,2436.0295574056086,16698.068984089106,1753.2404186541228,1334.573080688009,292.94164084456503,-891.299828634576,2652.1826392890157,16774.823595114467,1719.3579503222697,1312.9087932259065,282.0151616038403,-855.2203449769681,2521.1545762012984,16746.855034734028,1718.2300289626994,1307.8044599271905,288.0818085643277
-1004.0,2632.0,16856.0,1742.0,1330.0,313.0,-870.7402662806262,2593.091251153578,16778.941246706145,1735.7037482433745,1310.5752944030942,323.4772944003723,-1088.702216009807,2811.814973282259,16719.53944172439,1734.8433363714141,1336.4932665349147,322.30465855296706,-1071.3926548775783,2617.322781664187,16799.697864080645,1756.3566481034673,1329.0974602316787,313.5180543164142,-961.6065675782718,2565.5908623315327,16905.59605395237,1726.2810995289708,1330.7263821886556,309.9719047776587,-1013.5866407742783,2580.3602911211983,16847.849653277102,1736.9724402289382,1325.561809424915,332.2268208237649,-999.9044193462489,2641.7748829238776,16932.94503839522,1753.843582531546,1315.464161852756,317.5931690799685,-1001.5903121567983,2704.231203064551,16857.872406226626,1733.990993194691,1319.5039250269806,314.42490417206045,-1175.8066389764397,2749.1872164066885,16752.691710496692,1746.4966157662848,1329.806440937518,308.17402004635676,-955.4181338717716,2695.2022834795685,16756.131185028746,1736.8422042633115,1318.075006585843,315.8806637599388,-940.4707448404317,2774.8361726025037,16866.307867581698,1741.096605447451,1326.397450345626,290.0499013466251,-942.3136460817387,2750.7134531227784,16784.033372377482,1729.5383371187818,1323.53606479983,304.98207538069863
-940.0,2644.0,16880.0,1721.0,1286.0,313.0,-944.643135109714,2793.378145639249,16931.368418801423,1714.9262571793824,1292.3372095784257,306.38657855369087,-772.3457407230671,2674.2355753318675,16928.185637500188,1716.0696302822485,1289.7668020297383,322.3939211560532,-909.8815573921743,2699.056374777937,16906.06733815212,1717.4844988370726,1288.08994927645,316.23614223926677,-957.2316593916959,2582.552415416607,16950.743310826867,1721.2669339617385,1281.6360588858258,313.2580964008148,-1044.9096838065097,2425.584161687135,16983.30445781225,1710.1854114526961,1292.24519035172,306.8592541333936,-1004.2903082150463,2547.893741434802,16951.49636167117,1722.0929682929443,1302.5052443402865,309.6569760266763,-968.9499721956271,2639.367539258307,16950.278590234022,1699.5596243608568,1296.7332392282021,314.5407812404361,-929.7267538192697,2972.7399827303925,16928.326253616025,1697.196912371401,1277.6307892962054,307.4251771127836,-833.6738068450691,2679.908281543388,16927.495343983686,1717.9730235187053,1278.47632639219,310.35516466667184,-1078.5516869738763,2649.070104066376,17038.96688873692,1715.239875927711,1292.178257169215,308.4484036530058,-906.0912265832042,2733.6198988735573,16956.129608061023,1723.8168737522074,1281.587401795418,302.44777575076245
-980.0,2576.0,16712.0,1754.0,1300.0,316.0,-1070.1606823975612,2651.4717307206247,16769.472584560885,1746.1940349264817,1295.8801074045866,311.8304153113565,-1069.0639478061798,2587.9052921374814,16791.704243794495,1761.776841792084,1306.2767707156263,323.3019242990506,-1222.6387037903437,2435.3654626779007,16520.75748668439,1737.1483165734141,1316.319143078389,304.19353566543344,-895.8212007565791,2464.3094858486893,16864.020671517752,1751.9831697586744,1304.6983869407495,322.56344812092595,-919.7634846053531,2574.5147917634254,16727.23123251019,1753.8632189236507,1298.9537134821774,314.0093582282543,-1071.273736148609,2581.656531628579,16698.77586105987,1748.3852805833033,1283.1780134694175,320.7878843597422,-872.0209062259291,2467.838268949651,16623.216207219873,1752.0134998540643,1307.1694684148415,314.6526631782189,-987.7690737581271,2606.570544397186,16663.724663489575,1754.4142409744545,1304.2910534040952,303.43203253764426,-1052.8736821339658,2465.910107476977,16725.964308183495,1748.5301438244064,1286.7288274112314,325.50958788752655,-941.8420467274046,2564.333837596906,16562.08307006552,1760.6217549813966,1307.041576837225,313.4898428293394,-1045.0299220122351,2516.268823339615,16609.557978539604,1757.912064926572,1274.8464557205305,315.6332297682256
-1016.0,2612.0,16696.0,1742.0,1292.0,292.0,-1053.3802955461945,2471.6268137793177,16536.423417926035,1738.3739240873692,1298.725774275169,283.96618094646453,-961.558606451691,2610.642765823108,16712.219708663877,1739.6390832452205,1289.0879453459013,272.4561955885224,-1144.4060764169785,2542.445456639346,16745.80123332962,1735.8872793401174,1314.7576359745717,281.2496122356367,-1163.923632146841,2302.570338003489,16668.70540459765,1753.615974047269,1287.8454086118832,301.0534310092759,-970.0429798820801,2606.478670586219,16753.969720983598,1755.1627127327474,1290.4131855969176,282.44001606325133,-1053.2276169426366,2628.3206149182824,16623.570774367967,1732.8968213302896,1308.089278763813,291.2543767082161,-887.0712715776677,2593.748644809554,16765.406670488577,1759.9465979845197,1289.4800936343995,295.05457132495314,-1080.6274531747995,2588.508126014335,16621.53297444192,1750.0418726476041,1286.5149621820988,286.66313617429205,-1054.4802058899302,2626.1402240646657,16689.419761655932,1754.4913674442737,1294.4720873763779,287.5894461846365,-1053.3179010696829,2655.305877341161,16709.964015979444,1759.9072061451052,1288.8831584793495,311.97700138083053,-1163.8028062141757,2784.304058496,16700.316449006878,1749.1032636937816,1311.3656852616195,307.5417742117306
-972.0,2640.0,16740.0,1773.0,1339.0,311.0,-1065.4203254517295,2734.1682053859404,16754.424225974773,1786.0093556714596,1342.984782209817,307.0601129401421,-1046.5430767033572,2514.140477138736,16857.326616773033,1784.7917012497044,1354.7755393605,314.5630899163984,-992.4246833708951,2555.3829220007074,16736.514539110918,1781.9455986532037,1335.5513025037478,314.14369416426285,-757.3269001432585,2615.0170483616134,16730.822743738296,1766.949905455108,1354.5090016343481,324.3534253361116,-1017.0413904403167,2708.0076715777527,16835.049756277334,1773.4340995204773,1350.4258626604044,289.0838408224826,-996.422352274352,2612.4474301161486,16628.788040984342,1784.4995075269062,1333.2202307025516,310.41256349796083,-952.2747099932362,2493.318762122105,16830.459008693848,1771.9164166552039,1326.811936514169,330.1088147664055,-996.7610901345691,2622.885910315008,16785.441475407966,1775.4870424557014,1340.2344912038207,302.7370870229133,-1099.5162100384734,2610.130199748153,16844.05480792749,1762.2824919714724,1335.7183892995617,337.6322467827922,-1046.2347066687605,2481.4637945537083,16749.70727625641,1776.4187621429253,1352.9158084048177,300.25863187675293,-1066.2602530595088,2654.5379787547527,16767.89614603481,1787.453946372649,1337.968405504044,315.57661295790274
-1016.0,2616.0,16784.0,1776.0,1261.0,289.0,-1000.4071210740052,2463.379432646728,16836.112045095837,1763.4629063439863,1256.1107292628697,316.9818787911906,-1129.016927119689,2805.939970340371,16924.616140373506,1791.025674968067,1258.4092483442416,280.09201502354,-974.3134506250796,2819.1861586322357,16754.07397281605,1776.4902121285647,1254.5527038253347,302.48672196005646,-998.4648361029742,2671.7163012151436,16676.84894176141,1789.8177487488886,1273.3943921060572,280.7199058583855,-1073.7695932487302,2610.814811891562,16893.997824220132,1774.3506040117156,1258.1853474951356,271.94694579462447,-935.9118698064068,2513.9865573795096,16729.51499106102,1777.6521363031063,1256.567671259766,296.33246662713407,-758.102045397881,2595.6462838309735,16714.882550018367,1792.8969059418387,1271.3853029525314,295.62715513421324,-950.1568632554811,2652.9035916376597,16803.177249855184,1749.8565207410923,1258.9456997851346,301.6180302655976,-1053.9641805372003,2639.101760668024,16971.946983966405,1776.2084001670519,1269.6792081113765,276.7359470408341,-998.7685949388542,2708.146427267621,16808.563783423913,1765.645563247857,1269.163908500405,293.3642265737453,-1094.71991451369,2689.0133740622887,16758.46862618184,1792.8627125294322,1259.883359670357,285.92213697726953
-1012.0,2588.0,16732.0,1791.0,1338.0,296.0,-949.6463313990455,2661.5695947732747,16874.981533103888,1790.4877496563377,1325.4991000339287,310.6190367484271,-928.9169667870307,2556.0397331828403,16584.01716801202,1801.7561547130697,1332.8708642247616,286.1464302826164,-945.7093228710177,2550.895831254061,16599.092222821044,1787.055570772647,1339.6494059583176,307.96439042855417,-1198.0560458978696,2634.399497323566,16648.510677090326,1772.8914228075635,1340.7003681685073,297.891095871302,-1096.2928558049357,2687.248383256357,16699.651998362307,1781.1411647558434,1353.3131927941763,290.91605137924324,-950.4773413796618,2639.264688123065,16882.40382187924,1786.3238778070001,1343.9185345833973,302.2234792606318,-963.1882679804119,2501.0059523879145,16859.414635936664,1766.9404806451612,1335.4398545802412,294.38859994623476,-815.4050267323494,2709.8987897401826,16637.80391157383,1785.5195643708814,1336.5503418250469,292.72187516147096,-974.0197279056182,2588.145317305221,16689.358363361986,1787.5881192767513,1315.3744541894011,302.47421873778967,-1043.5959832411163,2708.1576879162394,16764.014629907782,1783.8814489820506,1337.9644335158557,285.2680871417224,-1073.6812440663357,2611.4606491226214,16770.893468310383,1792.8996281120183,1337.5761094515392,289.049253612152
-916.0,2640.0,16732.0,1763.0,1333.0,253.0,-913.5537431517996,2543.356543461248,16808.686819352373,1758.3659965436982,1328.691425790748,256.5144740710402,-980.0245883013517,2603.5531770321772,16891.08771470868,1762.5604614220294,1337.3296503265028,238.13606998442978,-1016.1229614479332,2589.8715360672027,16813.468465567083,1765.6235783844425,1327.6970390170443,256.6153015760933,-772.6080392090229,2577.694116664254,16653.878132367594,1770.482292860835,1339.3168312807404,255.68496591960323,-908.2164504801285,2735.3775754777503,16657.790584913622,1791.3457189087048,1336.1228006581407,252.6122195091733,-742.3617734352665,2638.7172481956536,16829.008702853665,1759.2812774502352,1324.590168894568,243.87013564375317,-914.2270248324758,2703.5759787791108,16645.7376833979,1748.2397504619837,1332.5127515955226,241.9543523367241,-889.8160677910822,2673.8357071589517,16729.63473267163,1756.9976615158778,1335.8305110380832,266.0223257340389,-1042.4065136909555,2745.146110498883,16767.892420663324,1758.2033987851235,1345.6399175001045,249.54293396206464,-897.6955260501336,2742.5084534214457,16642.17251212036,1776.3222954683406,1325.14264171803,271.36607199683857,-900.2431171396447,2717.7415269651297,16695.836259207386,1776.0242330062601,1323.9853397454876,236.46027811044806
-944.0,2600.0,16700.0,1728.0,1286.0,300.0,-1077.6159975557603,2702.181199946718,16829.339781199513,1721.140269804319,1285.1031041665508,315.0216665384968,-941.0784955289024,2626.3448884632107,16697.210420389943,1710.2605979819457,1279.91551080555,291.8942092209367,-794.1867495155918,2878.0248489891687,16788.70682478241,1730.5211812611603,1269.6230288756933,301.8863804798295,-1042.8041620479148,2581.896599505672,16547.856021700652,1721.0723033593747,1285.9946159974184,285.18124186529593,-884.2976076441955,2838.5181224028374,16732.971915234073,1726.3721758051495,1287.1364075522267,321.2839277995039,-833.9985615022549,2521.5858457084396,16821.740592047357,1716.1113157361892,1284.260195424062,328.46285499594967,-914.8294177716945,2551.0430754986705,16772.824459333424,1742.8697023339816,1301.4494611776681,310.63704925685704,-923.9691012535279,2538.7545649637705,16687.51490897991,1718.5827045172296,1279.230330580713,285.7010294591795,-852.389265333713,2449.6030502461454,16803.969884342678,1748.8301920756678,1294.0934074140212,300.54935584098814,-849.5201505072671,2591.9023621649635,16774.32053420626,1726.5786113585607,1279.5557470476615,287.7183223726203,-862.3421163156595,2540.3905599022037,16782.01097080413,1722.2910402642472,1300.6698059543992,288.79710607702214
-1000.0,2668.0,16680.0,1754.0,1299.0,321.0,-994.9342100576312,2599.000335980583,16490.15023001328,1728.0785682023632,1323.9004402862024,335.68344788555436,-1167.686735532598,2623.294800669115,16729.266172265536,1752.4763687526963,1304.469891762934,318.43109500125735,-963.4282488990843,2764.6431974588695,16821.94200410345,1764.0262804681186,1300.396941265879,323.1419640884855,-977.6014732510929,2628.249640444803,16620.123616140736,1766.464687769027,1274.8317813726665,326.28502882551834,-794.2095759745258,2585.6118158987056,16813.610137636868,1745.794945615249,1308.5064431581861,340.3311271843343,-1081.1739208414722,2800.8113960403352,16811.56409639207,1750.2353755314628,1303.5070605349697,337.71701554152156,-1299.8820963316114,2533.3661431817436,16744.53506784243,1755.582317449749,1291.0911439761858,325.09753103700785,-1041.2345791654047,2518.727068173655,16428.395172873017,1760.8214291189622,1310.5043057640771,314.4695613398345,-1126.373563177108,2397.7977213770714,16627.287102473674,1723.9666119200267,1294.3969843213267,326.0047436535316,-1035.4038654593096,2830.5844571640323,16667.06799014471,1746.352114281792,1311.929618724494,318.46890244493954,-1014.9328768577158,2529.958601052069,16699.795742259026,1763.3623665234265,1304.1909363447005,328.50095804543434
-968.0,2604.0,16856.0,1763.0,1332.0,287.0,-733.2893969381538,2344.7650274300872,16874.021275916464,1768.19852660335,1333.2840546572058,293.2055218562123,-904.47183107889,2678.516196888953,16918.739809917555,1742.7370436982335,1317.7015976676657,298.213898566513,-977.3650820754833,2563.809878257042,16888.402824775043,1751.1488114694826,1349.5857140407602,297.1455630031532,-891.911835311601,2666.7977236116208,17114.031387707768,1775.015618321941,1317.5589979297101,267.0538462909585,-922.3556115820091,2652.029579559482,16780.941583999902,1755.166016281613,1329.944001235287,285.8924970637182,-997.3635343322331,2603.772375572699,16952.569292826338,1755.9598200790558,1345.694557896017,318.8336418972815,-976.8635525427432,2584.4601792211215,16755.264655539617,1769.7405031356816,1311.7662718127965,278.58970215359,-975.6482871037756,2531.0217863153566,16864.09366784027,1778.7664490651007,1332.3345035360799,299.4201496623646,-1042.823201482417,2486.141726581398,16831.595422594615,1769.173669818082,1337.218053961517,292.00014027492915,-1011.3147503498119,2815.607848907128,16858.815542824075,1767.6906612493483,1337.535000414212,279.120580644118,-1169.3184102694045,2591.8675686512847,16844.888531336866,1749.9366694648136,1324.4881790400489,296.65467975822753
-976.0,2616.0,16792.0,1750.0,1306.0,308.0,-1020.5443072681719,2384.0620449932835,16866.554539341178,1742.834252482615,1315.2363805494697,297.8877252422945,-1117.37498238299,2688.2781066372495,16632.21530305811,1742.1512595090564,1313.486977485962,307.47913612342626,-850.3360733066418,2550.2277696340566,16695.754476905047,1754.7222451852674,1321.5506295183877,320.4196805368182,-1064.3800616081412,2583.9920596699844,16827.520357917085,1742.4951817217448,1311.43010018294,303.3067160810633,-880.7552624253516,2573.092698799856,16695.128058421924,1745.4100692664788,1307.9099458375993,291.5792174188138,-1210.2063834718379,2713.0167058208694,16926.595990204933,1739.044857585348,1308.5543099959373,308.09716941412836,-958.9233739987748,2472.030896661325,16804.981630660273,1743.4643816877556,1304.656006154416,316.1546803526725,-912.5535529816491,2502.9291413606456,16802.05567428093,1769.4951042667358,1300.2521035501857,304.6160981613422,-1076.6441205419083,2851.6033215268353,17157.893260170975,1738.2223572238358,1305.356113381178,306.9894612217037,-1121.0806252307061,2599.490519576606,16768.190008218564,1755.1295217418312,1297.2298978680178,280.410018050766,-993.8842446819071,2653.187838164843,16727.057494519788,1744.1944114900052,1318.7711792450677,303.8409277338124
-940.0,2648.0,16648.0,1746.0,1310.0,283.0,-814.8427051443898,2644.5540784322866,16428.28844794291,1756.9590555478019,1321.4144658257153,289.4570395758984,-876.9884581083787,2679.4872178340834,16775.944762594085,1712.7213488893979,1304.6203392498185,281.0673849649509,-989.6585210285513,2523.3111552419427,16757.662670780694,1754.6048539813164,1307.5536702856245,275.0610208895074,-1016.7872721053249,2482.77488916532,16655.028541122996,1740.3064063561308,1289.9562787044656,275.95410437691896,-969.6924681213543,2747.827537207988,16670.94181556785,1743.8521241832566,1338.7215197804117,269.42636875300377,-1009.063866383112,2694.496251217742,16649.98543521503,1740.554075169357,1317.4436984454856,271.266880563207,-981.4948634168251,2548.241502267443,16675.313666554026,1752.9454337274988,1299.344014412448,278.7122308028032,-1096.8805738970555,2674.1776534926394,16635.726661828226,1761.7740486868245,1303.4009734103793,284.0055509003535,-1003.2907991858325,2549.011225817115,16487.58226071793,1746.4009625373697,1309.893637511943,272.77255799159593,-944.1016251478316,2751.8404864544177,16612.522109059697,1754.5208064390565,1304.1418157071757,286.2371159776516,-851.7710446458835,2677.0023158237314,16648.34878773717,1758.7777033849177,1309.5039613104932,277.6953849221134
-984.0,2644.0,16784.0,1759.0,1337.0,292.0,-986.4628812416812,2521.0065627507897,16778.37346264739,1763.3696186035418,1341.9896399460433,273.59368976692514,-1167.8836568366914,2538.2991502950367,17057.34666020366,1756.6970138391168,1354.8317653855606,285.04980645059686,-851.1346621032051,2491.5929001580134,16750.807327543665,1753.2049226132303,1332.668605061596,293.05410019614965,-1063.6880955553527,2699.332098034451,16909.725974503515,1769.1147265426955,1335.4348629395183,288.43347805129184,-781.4989913145704,2522.0644013536617,16677.868515733215,1758.3071245502595,1332.8810339594138,285.5971131551676,-865.495642226085,2649.3607588967798,16777.273197493545,1772.3345564741164,1336.5564043619747,302.47334068289365,-830.5412333470248,2709.7065837546015,17012.16317925873,1774.941548112123,1337.5747322048758,302.3836574590701,-1091.5013763326233,2625.8512662934886,16825.212234821334,1778.2277725488036,1325.7588459126844,304.3618750412893,-948.9116551658695,2433.0798139765093,16828.675214895688,1757.641001845354,1332.2681529395275,286.7672434346125,-1022.3985948553507,2760.7366903539973,16841.431298832347,1769.036998279544,1343.2119198181108,293.0759309560095,-895.7962487445872,2682.1599738076993,16841.86905470048,1747.5198229934813,1315.3919562957647,293.17633685795226
-952.0,2564.0,16748.0,1726.0,1275.0,321.0,-699.8430080168112,2355.806643437442,16738.05818083478,1720.4101287755682,1311.7331884328523,319.83660664228046,-1205.0465126716472,2561.2901220953495,16871.249679013818,1728.5805423336249,1275.7069841646655,333.30332935363555,-1019.4657693607653,2628.0377371905383,16811.787939493726,1720.7140888193383,1274.8982534859492,305.74953117790454,-1123.674299931493,2469.8566418915784,16696.519063705568,1714.35744546473,1259.095638857734,328.89364042490524,-855.0611676484161,2508.862158547877,16797.200095415494,1724.7923482000979,1298.9835603512656,337.51407041729334,-792.3935148055193,2350.9071685448957,16678.222059156647,1701.6127102880237,1276.9896793972937,336.19529467527934,-1052.1121185829961,2542.262532676334,16633.73514424886,1718.0915028175225,1268.676547953668,321.22000090023806,-876.8483764746231,2797.2462569631834,16588.051250289132,1714.8233875025646,1283.5876800023175,319.128094034644,-872.6634820451069,2587.267468047276,16658.972405214066,1724.381682868516,1273.9346916223587,308.94774375611206,-1028.8495690647806,2335.301057227384,16831.58359307331,1722.177870986964,1265.5483623534199,316.5676306414978,-961.4676601817125,2539.850367533493,16655.039320194817,1721.6078247415921,1279.5101001772996,320.3830255923339
-1072.0,2260.0,16580.0,1090.0,1525.0,688.0,-1147.781283305326,2330.971500802524,16552.86183337768,1076.0423485407866,1525.9681588275853,695.9385897866829,-917.0380510321902,2377.030989140505,16527.087812422575,1073.7399858074364,1523.5063683619492,700.9609605603748,-1162.6467651941784,2108.21461140786,16416.654312609007,1087.3188113297253,1524.472664111952,677.8403005518021,-1104.5543002863888,2222.6326474834245,16371.885857461551,1095.8234945390548,1528.8099688496081,701.2977914281214,-1024.972311933008,2171.8660290501175,16539.74347383643,1083.1299909830393,1511.7289727820155,699.3190493577647,-1091.257684440489,2397.6120136435648,16610.13327808345,1110.984500510486,1504.7009905413465,693.8972531548972,-1097.5672118463497,2396.9304593525553,16603.683143260387,1093.1877031445365,1519.4335101162978,682.1554220579928,-1064.130216118933,2094.4245942988755,16588.638021800063,1080.2222746995153,1520.8100273320076,702.3457413497991,-1233.5462452025195,2312.634406939425,16542.73302739019,1096.8731273297635,1503.696175008281,697.5725759017851,-1031.0901801737723,2258.150374471815,16716.966188704544,1078.6250526726294,1527.3460478105367,684.2091286612822,-1212.2249838011005,2469.1258184638987,16595.955590543857,1102.6284394122094,1514.5530621908647,694.9009254429342
-1000.0,2012.0,16332.0,1191.0,1911.0,341.0,-1021.5293473521283,2116.7480292968958,16318.378849663459,1178.2906249233058,1899.883883786667,345.62408816407014,-894.7305916173868,2196.226557427007,16359.77068740189,1206.5656948970113,1915.8407352939303,330.7751922721896,-1094.0170944888882,1936.731227752971,16386.17207465506,1186.7408170547951,1891.0537570500412,338.4058493728533,-1136.090673758985,2077.895506694959,16360.210337537514,1165.033971011589,1913.2867278712035,319.4530970913872,-945.4703180620169,2048.978323241306,16037.229211042666,1204.700106427429,1885.9891129025125,359.5891616145038,-884.735189461672,2123.147202569773,16261.297415372821,1184.6265066452754,1925.1240321896014,349.7455216808671,-1019.991745627912,2132.97516729819,16419.6859539011,1184.0715776732254,1922.2341253976113,332.3071809549851,-1032.1756940630964,2177.6229809282945,16360.264431142823,1185.6385994297505,1928.533843708349,341.8087997373823,-1076.4342714425732,1983.6544861745372,16317.112405479462,1189.8449768394141,1914.5930984440902,329.13917869587976,-1048.185466106594,2106.1594159212345,16231.827510704028,1179.9044868522235,1897.6396426908404,338.37704066711893,-1093.8423526850925,1958.7493838529585,16191.989730619987,1207.3688428099738,1901.0339108596565,345.926128745676
-1168.0,1676.0,17408.0,2521.0,2861.0,-170.0,-1088.308671587375,1626.782344461771,17399.795917138497,2515.0553021736478,2832.90981915644,-147.96701045961385,-1195.6455252431958,1701.0821733132066,17562.788812639537,2523.878814108868,2867.246075313851,-160.7998083003296,-980.6351928413421,1715.0582227151128,17409.52606516369,2511.420715927552,2855.235806825693,-169.95668901244002,-1194.410231559851,1769.7567666310026,17323.912084718966,2522.3066697416402,2852.395269200752,-185.2192652682763,-1338.2453623905703,1640.2508370733137,17324.85488834954,2521.3671733033543,2839.4454404889257,-161.18428535107552,-1125.697091773032,1666.5992098406168,17613.219229066694,2520.1613490114473,2868.9018867902873,-173.82718166623124,-1172.235733550389,1555.7606683505817,17297.828918676198,2527.140869743107,2873.609811462735,-164.7674866890006,-1108.5061234287755,1598.109962282429,17459.192277932932,2510.3580114372717,2855.0727642766988,-163.89295988236802,-1250.0537003985141,1625.9303400449865,17551.67175036368,2537.79083629875,2857.1647401559508,-173.1130975461051,-991.2499628923852,1685.4492934996429,17304.533494397558,2527.872103284697,2848.334520115778,-165.94378307086086,-882.5540645455283,1580.3175224837903,17275.451567660628,2519.9092619444496,2869.853587690355,-165.1804881219349
-1576.0,3824.0,17944.0,2218.0,692.0,-1198.0,-1611.714667365894,3915.992656960079,18009.21698970466,2230.524825197912,701.4588960651121,-1181.9939410774828,-1656.5037179902026,3909.9436550702644,17828.79423600643,2207.4725733619375,703.2060324259805,-1186.5281784776182,-1618.302797344533,3856.992511513288,18003.627858081116,2218.7155088785735,712.2220746887626,-1195.249107514411,-1737.9350626782111,3675.5639029467807,17976.125415907383,2212.0792938376326,693.354630735999,-1202.678402914017,-1587.2267257805076,3795.303869923543,18019.286078444013,2218.886620138981,683.6773172572135,-1199.4043710006233,-1673.311455485066,3814.9078534435434,18045.893502998293,2207.755005935764,686.3164042846761,-1191.6247201875271,-1489.6969073565701,3702.824779959518,18302.775836616584,2222.742247580001,685.0370020251115,-1197.887552818424,-1620.5810641895816,3925.728810691766,17829.51663484575,2220.6786208934946,700.4909990391859,-1207.6836074327327,-1546.8374625923425,3805.6056606358757,17864.60028344057,2207.159799454449,696.0193389626702,-1199.5755438544375,-1539.8632985447002,3845.7488840741566,18123.546387875384,2230.350642522491,694.2556003416693,-1208.6300037914077,-1611.4957789643404,3948.1504584397962,17884.649640081403,2226.818328560336,685.7209916762578,-1191.1056967796058
-1288.0,3660.0,17036.0,4.0,-1008.0,752.0,-1209.6450768829227,3596.050039504829,17126.773477102477,2.932474722517769,-1001.8284969432402,745.6797844058206,-1365.378259588191,3599.0845143586034,17048.064866504363,20.011103388669362,-1019.6202235412034,734.1776324303107,-1245.1785695439662,3729.6808099038913,16896.278507356463,-8.825350941441414,-1017.6112025803814,749.0156108815853,-1382.326680057762,3719.618673852874,17132.69850311613,4.156782207220812,-1006.4821310850084,760.7350152926432,-1313.6053403019923,3541.8168141193855,17045.693332910854,-7.861246571948287,-1007.9300639832193,745.4354441163675,-1423.542078228882,3600.2009004888337,17032.719523020904,5.5793362393573585,-1004.5111757414082,754.233370940402,-1289.847782749792,3892.376159916584,17197.61934337582,-5.934275079740289,-999.686597504642,763.13487228515,-1289.4370277781595,3706.807431131342,17113.172964042657,2.779685941076062,-1018.4890276793169,753.147067127954,-1330.224015537393,3839.1337299464844,17066.64346125286,-2.295062554757422,-1019.7166193651867,736.1200518594319,-948.6908193858745,3910.1019945486823,17137.362473346893,12.19798009712117,-1005.0758821533467,745.8721267997439,-1347.1240284058163,3674.8765503916,17126.64429110048,4.913694616132942,-1015.9792918009832,754.6893285474328
632.0,5352.0,14432.0,1594.0,1678.0,1247.0,572.8254277170996,5276.20099938822,14543.992825504207,1600.1390017383037,1676.2925666014457,1260.185207449163,564.6200991061354,5194.799955969648,14256.616742861308,1585.9574513199918,1675.3458268088639,1240.2860671185904,594.6958156994174,5364.578491122166,14467.944308060878,1593.9321984148048,1677.8804216472736,1226.9145149719498,470.08999957351455,5400.029146230428,14542.482030829384,1584.5826103750005,1676.5208147078374,1264.44196638138,614.475526125401,5316.234322276506,14649.632616719895,1580.5614001760396,1660.253233520687,1245.6993517173896,753.4631068438666,5362.547663379999,14713.761435679746,1591.3343393146304,1703.008616189109,1254.840590098492,465.43165329096485,5339.889077646991,14382.55792047484,1605.7039058977512,1677.699450128853,1239.5737120940576,625.408212504567,5167.769914250764,14264.754286280258,1587.989381226796,1658.4772526386214,1263.1222112776638,647.7205255550912,5427.179238182506,14324.837374797984,1603.5549227539732,1666.800718378677,1255.259267106024,651.2772281057436,5147.977876377232,14664.035452637461,1583.8717092189424,1693.9635975659373,1245.3918322120937,611.8501944088835,5452.75808159581,14410.578964153705,1579.1593344632968,1670.16839622889,1232.0876564497075
-584.0,6220.0,15872.0,2654.0,6475.0,4590.0,-597.7419819528378,6167.632301099381,15991.113472036222,2656.7425002697364,6468.402844472758,4597.161924955888,-510.86007864296386,6209.852324079804,15901.75884377486,2650.120673809158,6455.452761622903,4596.888461867748,-689.7137035518581,6235.312981639177,15728.608297333101,2673.2058967903763,6477.83367076046,4578.42917084348,-471.23984566648204,6247.656665830404,16034.602945837261,2645.6618065707057,6487.754808454216,4602.029015634996,-624.7430602259378,6283.0602845383955,15820.328408484746,2661.167269867359,6457.832333975572,4595.412362157634,-392.3609598663579,6167.887590128225,15799.863795561261,2672.8584359052156,6481.859860894402,4586.837243646848,-564.6665137958555,6079.771122179466,15830.249696645309,2655.6073713020346,6484.541974266263,4584.507263173923,-454.46833053882483,6239.034223340681,15828.831705452565,2656.506681390133,6485.56597368749,4611.0216499915405,-512.9797586365203,6154.4599638651425,15767.032957832287,2658.45410802508,6501.0970845412,4578.808518498617,-599.2218302270486,6303.758963559709,16006.757157255424,2657.7410802388604,6461.394960689571,4583.1618611314125,-531.9335766851075,6086.543423873581,15660.590606954453,2640.018425173041,6463.756725404548,4596.761907232132
-3156.0,-1104.0,18752.0,-3266.0,-4865.0,1755.0,-3115.547119465229,-1098.3384683151673,18835.959592309853,-3260.263888673167,-4861.298045128277,1747.321661641409,-3063.9755403343447,-1255.1194104147971,18874.25876052071,-3273.089999789869,-4872.145881842032,1758.5397504961134,-2932.8597187144715,-1111.8741397767337,18807.685829447168,-3251.998773777252,-4850.992451081212,1760.2869475990867,-3076.3417499858215,-1115.1493229655252,18732.09997333506,-3265.1216702561096,-4860.075781879466,1759.9070360859432,-3223.466000519335,-923.608854577379,18754.794070661774,-3282.235561434943,-4867.998737130072,1743.709948983332,-3058.752316482053,-1217.1343982063352,18693.39603504315,-3260.7225856182035,-4871.236218376093,1751.5167857358847,-3097.651597104931,-952.2470144491026,18724.248089389665,-3247.1052545613734,-4862.916957378149,1740.1645434314714,-3198.5793126367444,-1130.5985450350356,18794.9936350407,-3286.173510705886,-4870.72838341298,1764.7506008908472,-3394.9074302011354,-1264.8307554632113,18789.393028890616,-3267.7947884423106,-4857.559340972431,1755.730517560028,-3324.1092655356333,-1161.2327313569365,18613.598226937214,-3264.9996324513054,-4851.789724732942,1746.6812698872156,-3013.7050120086733,-1352.3976790386826,18632.59474093727,-3248.8634371443304,-4867.2987456262845,1758.2295400154712
760.0,3916.0,15836.0,1910.0,6127.0,974.0,712.0313797942172,3938.8652256271416,15853.895246098584,1912.234020562758,6130.366068377541,975.1279355472343,776.6057468508941,3693.397506538575,15804.403534088327,1907.3737142872621,6158.0720909840065,989.4900979376563,836.6463600344905,3941.0734202974163,15912.255107685227,1913.4494046371647,6132.200657056271,960.3648664323861,856.5447397345035,4030.2426658449485,15661.178285725917,1898.1679945892838,6114.299200260749,962.7992445340371,864.9784829814362,3809.3652917109707,15752.968688346227,1915.8634059239064,6140.36372012644,987.6173805405169,809.8870444361005,3916.2165594587327,15881.941856431895,1907.0267305030718,6126.083918786237,968.9534345684963,808.2870288884031,3858.2587053328652,15867.452499020319,1913.417532308592,6129.277702093356,958.3001938325868,730.4791592641814,3912.3281349169274,15750.4012864417,1907.8911191963243,6130.108857595439,973.5127920138918,813.1272438251082,4013.585194134541,15990.693155086137,1915.9404130894045,6134.831069374589,963.7691880941542,717.6825183902104,3811.765065563908,15912.279375179476,1913.000232539644,6107.85126601076,955.0149137243408,806.4328665891182,3772.8629745981243,15688.364217203314,1919.9647268744145,6139.035670229362,970.1882889052782
-1112.0,3456.0,16876.0,2666.0,1837.0,2198.0,-1102.8273064526813,3521.1079127213675,16875.90273511802,2662.666416035062,1831.0359792836057,2198.804344576438,-1210.298988070544,3597.6842720590557,16963.17815973771,2661.078593253776,1864.4042462497334,2199.5944204773073,-1148.2537657260089,3330.1705291700414,16848.35029829884,2653.6873405725514,1830.4116185615667,2205.9468461557144,-1120.6372527012356,3607.7301675102426,16775.513366693547,2664.969347169449,1832.6975135081589,2186.9237712787735,-1338.5276430768865,3373.248689257811,16938.44206143365,2676.387735124139,1815.6161873405679,2203.5270440168574,-1069.719541215658,3432.153890098115,16865.528961056505,2661.710244658626,1828.171955118274,2197.43754031277,-1139.293457516214,3516.4428645587486,16804.668643915084,2663.0229525064647,1839.4362971709204,2196.1246778752816,-1108.060688094749,3501.176705104641,17095.53115589002,2659.702056737536,1847.5158762305632,2206.8086722588164,-1326.9359033929738,3556.5827569654984,16969.02359571454,2675.6001814746933,1824.629979927127,2192.387952774421,-1158.7983157919598,3414.0305752461627,16898.540286568154,2673.9526700701704,1834.5968853750744,2204.5376927256534,-1041.2237535589286,3358.1617960544804,16804.456552143543,2667.1172757642003,1845.6944359187285,2193.6779960832077
-1624.0,-40.0,17032.0,2210.0,3078.0,496.0,-1677.3951858169562,-8.156544470265501,17108.194435417416,2204.927549005048,3075.555921780699,492.0871673517565,-1612.9822972990669,78.36768803620383,17049.367573574782,2204.6448832872693,3077.790776353063,469.87904452419184,-1781.4981062772406,84.0702517798593,17094.027475611292,2179.912077188477,3077.663601446869,494.89073703793935,-1552.5669446708646,-100.13547243054649,17026.81424357676,2205.7533084443894,3089.809664872454,492.05691203020103,-1440.5153367084802,-110.60532924828378,17106.338268231288,2206.11591184617,3067.9932467173176,489.470373842448,-1596.8778130671037,-65.32059470903354,17023.117300847454,2219.2067815881273,3063.620781384422,522.5546475342352,-1738.6280088889084,-82.7409562640976,17039.72061368844,2212.150536173319,3072.5058404461024,494.5050331851562,-1519.6101326785913,-53.888094131097006,17027.591785863624,2206.111245352797,3093.9090117142136,495.7405584416181,-1659.4059665357788,-255.6099737087165,17045.62809911275,2225.5889978904847,3061.016915563258,496.95337689539167,-1619.7235902603309,32.00580069272206,17183.095821408177,2222.80574573849,3075.5631955036642,517.2671194433227,-1422.3275403835628,88.58033229093766,17039.2133646621,2210.216266223152,3078.2371231961693,498.9629544488492
-1876.0,756.0,16624.0,1838.0,2368.0,-1351.0,-1913.1163430212828,836.5675528341487,16766.62182773614,1836.8922844835672,2360.898857648885,-1352.6995902359886,-1852.3521930891354,815.4335192214738,16769.106031858482,1837.8776106942123,2338.0914176132874,-1349.4898923414496,-1810.671508261841,911.4344272270598,16629.309217306545,1831.8216504116967,2350.0260478686687,-1341.1527542932188,-1996.9996446795928,680.2739183021341,16915.243802746576,1844.0337195689115,2371.412537213341,-1358.7932990270242,-1874.946191634682,702.5136180017962,16748.262634827795,1832.0121756179017,2387.125624101306,-1353.2608184917513,-1976.021993305773,857.6173097763752,16583.876454964582,1847.474533414243,2358.626060154219,-1339.536129783975,-1813.78658050571,807.0072789544918,16668.352575995625,1815.3408990311252,2357.7909133239286,-1344.114335959184,-2011.1329203759262,798.0212972063832,16636.179955800853,1826.4254262439922,2350.0043085166963,-1348.4233307162629,-1820.482279364688,735.8728645557569,16481.49391249589,1830.6182612495295,2370.847624974643,-1347.2462060226057,-1820.624535347696,727.6658613982487,16748.815749510133,1837.8562680172874,2380.293419648612,-1353.1885636589434,-1753.640550336297,650.8575590751681,16706.934243190422,1858.218528476965,2377.851397681723,-1350.9722928525528
-3052.0,860.0,16184.0,2305.0,2848.0,2533.0,-3042.9635869840495,896.0213146539841,16151.202015423269,2328.2933565417984,2846.9720946673683,2532.269044572199,-3018.808713938417,870.0936962640236,16263.823218642992,2331.602596290526,2844.7152466825905,2551.7044584098226,-3076.8151149760038,852.074262110281,16232.576677583223,2302.3974279909044,2837.607811605714,2520.4171993972573,-3202.4344573162875,783.1672077865817,16003.977789567465,2310.6624778722107,2847.13792168441,2519.0242614800636,-2992.6252526284948,923.642610077943,16138.695687708872,2314.061794988594,2855.3381070158184,2528.829275027766,-3122.638287962199,697.6401186800099,16145.665681665463,2302.6544535618254,2857.6002816193,2542.8355001065684,-3195.4859412491755,957.1286290883,16100.748849287862,2311.7912873650475,2857.7604159018615,2523.4207801158027,-3190.778428473688,816.0419028566006,16294.44098479529,2313.7751555779055,2826.944053357132,2536.4838416535963,-2887.6089536814175,856.5339945598574,16221.258579031612,2302.066650336914,2845.642969583126,2532.0983258218434,-3088.00043255719,866.3291021223114,16280.69617149066,2303.23796482524,2837.3652592717594,2544.9402101474434,-3092.4697221633305,1047.0118866033563,16150.807932937283,2314.065931155424,2852.525044530863,2521.0532300769723
-3712.0,2296.0,17204.0,973.0,3009.0,9249.0,-3675.0056404771185,2224.8326078805826,17156.61822169858,968.9117097695574,3018.7106773482456,9245.543187154317,-3687.5664973882485,2353.2906168397267,17173.140947696636,993.811894906195,3028.1936486613563,9256.526777464185,-3641.0758041789204,2351.4612689533947,17258.662521755774,980.8078665489016,3003.8214468747938,9252.390377665695,-3723.8762993774935,2296.789909998131,17186.746072999584,973.492022833379,3012.3529224131194,9252.300550635155,-3576.6723756849174,2132.705385251198,17220.372924885818,987.0246731123991,3008.753716847976,9240.730415682678,-3388.19584609298,2297.709303068294,17169.163915528112,974.2867949862167,3005.289496084796,9236.572951997763,-3669.0605298234796,2213.185418814344,17202.730160735115,977.4724239381032,3012.206430339575,9257.769282799458,-3686.5393970812825,2094.6645617123913,16937.04187988455,976.6700151228158,3014.0509205903704,9258.668630462274,-3732.4104899253894,2268.9142262508794,17253.468727213705,975.9194940257452,3010.957047118385,9247.969816410985,-3895.491986127893,2250.9855922719335,17236.828427356948,974.5762345694899,2993.826331275754,9269.055059700158,-3708.3028242770006,2321.0833135661987,17138.421031353446,997.4690545787122,3011.513879940154,9240.03281532054
-5176.0,2460.0,17936.0,197.0,5010.0,18970.0,-5239.784725615192,2442.9035634544057,18013.125216629982,184.57933340737924,4999.072605718161,18964.474241773536,-5179.958431572068,2462.793298459598,17825.400412838746,196.29642357160654,5011.801888930488,18964.017025633802,-5149.55203625496,2462.0246041155788,18073.251620484363,195.7129550038252,5002.762787560116,18974.25988286475,-5136.190079321814,2404.3085463339166,18000.6477589981,218.90525778547007,5014.243851545463,18979.46228487596,-5063.602705931324,2542.751829004718,18131.321798304845,194.39576700559584,5006.23696476909,18967.06546570359,-5145.65310521219,2473.7443029619317,17829.668143255043,190.77162496460798,5017.219645933525,18974.542864464183,-5257.241765249448,2459.7113654654254,17807.06715622744,184.8385442689726,5010.1272624667345,18981.6792360078,-5289.171100305369,2522.6051207467253,17889.141121014043,189.47558868080105,5006.858880297328,18984.386885311174,-5162.021601862459,2439.744142627431,18016.780541079468,197.56377144531538,5014.73840833225,18978.442619073037,-5236.048439838792,2481.6741987276446,17942.156618070112,199.21256171050933,5018.659440414201,18945.415045390444,-5222.2812843836755,2347.4790551577375,17754.37108375673,185.9502263153449,5012.139265947569,18975.730615279244
2440.0,-1476.0,15568.0,400.0,6875.0,17932.0,2432.0071146621885,-1416.1622382404614,15709.871836205943,403.69202171150323,6892.938492399839,17919.797619034915,2219.8948395281463,-1358.6993012426838,15516.461490166954,424.9499742246394,6877.128616765859,17936.441385925056,2270.5258873722887,-1225.941997882856,15674.89736147309,399.6183994565003,6877.339093513025,17917.920722869963,2405.0021479180946,-1643.3783491354527,15466.565517277999,406.1753521335092,6867.906209425753,17900.725743136325,2377.432605661335,-1597.9171163955928,15554.037709431255,411.06457717763396,6888.325385412212,17933.486294058595,2130.825262933305,-1195.3128631513312,15625.056915022857,409.64273430511986,6860.494195501806,17925.512587168363,2325.859009652034,-1489.6546672936656,15583.509120380812,395.9343582629039,6881.783623498117,17934.48006928303,2422.295164671975,-1708.7391043723744,15545.56236616498,417.9638915682046,6875.105826786553,17922.128025972776,2355.3606786845826,-1399.1899725118387,15425.69603201906,402.84286352495394,6867.9033218332515,17909.901111974727,2400.3930788098146,-1507.1193262874604,15507.02415719165,422.7550741134085,6880.768282639013,17937.8762755359,2387.8223503773675,-1360.8586300350682,15545.812074896794,396.48947589401024,6862.864755610445,17927.18220144596
-136.0,6472.0,15904.0,227.0,13853.0,11824.0,-294.76482679927034,6266.725031508414,15771.413541438702,238.89851308674054,13851.342098468567,11827.740247301399,-81.18158141797039,6412.023961204985,15928.530189904817,222.2668786071602,13844.60450887129,11826.905784592283,-179.51911840274352,6524.183278034708,15750.719636562031,233.72067559226124,13844.17447198835,11810.68183957817,-174.13843336364528,6721.303032822806,15904.89527738834,238.2064846563338,13858.064103450002,11803.526186253423,-105.1397853751731,6492.525094907619,15830.899446174995,226.2662443760635,13855.31038195529,11820.856102325317,-206.59637265732903,6509.155139436253,15813.962227993992,229.5878930910918,13847.282373906135,11842.256563853798,-162.40613612670973,6484.115883333171,16023.665901977789,231.0066224098447,13850.409771124234,11821.787917730244,-86.2560981869814,6602.44348177473,16124.301805168494,223.95971137367715,13866.018889819436,11823.227758365181,-138.38878613257376,6464.467185545758,15880.833577329207,234.31956497160448,13866.105298661507,11840.565793098383,-121.0082197647756,6566.483036582647,15954.717815629616,251.18207436816905,13848.722551243845,11820.01237167624,78.13038348337454,6719.852282153004,15961.421635592198,242.96466620304437,13865.17304822688,11838.477367788431
-3172.0,4976.0,20236.0,74.0,5482.0,3007.0,-3070.3446277632274,5029.296937359118,20248.053062863175,72.26565721735213,5473.790797586806,3011.31919538701,-3322.037907021414,4932.769667488988,20030.8674808621,85.74481674674672,5483.164090544319,3006.575871751142,-3175.188395969748,5025.443090479105,20440.36973754301,78.01831632567412,5494.151978603832,3004.227372436356,-2934.5060394574743,5027.360401014084,20085.832249955805,72.03367027770882,5485.009603896249,2997.4478838828786,-3037.7700917577513,4774.514589266373,20186.145334883833,68.09083862393172,5480.021011144181,3000.5785460662482,-3024.069716037685,4895.113391766897,20228.15274357676,70.13504819995366,5484.375168055391,3017.3610469142413,-3205.617631887545,4903.65945735279,20296.993888752124,74.59187936544804,5483.815135884572,3022.7005849792363,-3308.6321644012496,4910.354168986827,20286.10717024635,73.53835471449985,5465.164183839103,3006.528210148089,-3140.283535655303,5067.059936002006,20051.767339278245,61.94387559110759,5486.483016646223,3006.4522365986486,-3062.5645547494605,4959.482341366493,20318.885634190923,66.59749162098498,5466.655178606079,3003.883564699588,-3229.912191194858,4995.263063715956,20251.286618536553,76.34330858810488,5504.919739869346,3010.5859559352543
-1920.0,4332.0,18064.0,1007.0,-2254.0,-1817.0,-1864.378530469133,4399.524901742715,18031.331463274575,994.9962396915655,-2248.286950638389,-1835.2587618493933,-1911.4583453934563,4445.163072863262,18130.25108480527,998.4055874921338,-2255.1030915233237,-1815.3558535696036,-1960.057567704827,4344.5045957493285,18172.655129144565,1006.6736585716258,-2252.657310194894,-1803.3014519839537,-1588.5210354789747,4290.140891597962,18133.870627005308,1015.4062473561241,-2254.6340624009345,-1811.4673971861166,-1870.54235149324,4342.471575761778,18173.14564604157,1008.4078987142271,-2256.3093368987766,-1798.5727857163636,-1975.6466907514491,4313.24223047108,18069.464539271085,997.3780871455609,-2269.3727730286873,-1813.328276566074,-2035.241391703176,4422.493124024083,18065.15346960732,1003.9400133562687,-2243.8543814127693,-1818.8414138584008,-1981.0407279869119,4519.820274261946,18118.34344312449,1005.3678933373429,-2267.4164355525036,-1822.3571643968785,-1961.1841544002323,4252.583243909776,18062.597705358465,1020.4987198435828,-2253.939216879673,-1828.543249898196,-1893.598605011448,4289.263655072852,18042.072773392825,997.2815410262023,-2254.7818130579776,-1811.9672743803235,-1855.421023721156,4457.900989238825,18069.757651020213,1012.7121693778818,-2250.6736509712964,-1826.710873254396
-1600.0,7212.0,14292.0,2440.0,-871.0,-4860.0,-1505.4150429567778,7254.320235114661,14225.674462158975,2450.821331525568,-890.2083897722254,-4864.058616568346,-1573.482402381016,7076.74997645807,14560.85839543866,2469.0027961759574,-873.6886601953989,-4856.674883509233,-1600.9583943723105,7077.325920267553,14248.761693216844,2432.042731312518,-868.0464409608581,-4868.481214316013,-1537.1359881672126,7156.735906897541,14175.246376288751,2428.4796770518333,-882.5797068408128,-4860.143828881827,-1716.196838518629,7178.631175901127,13882.388449130198,2440.3515942453787,-860.5373079075392,-4862.840111002917,-1760.939170977625,7061.753522925846,14381.425543034065,2439.8138684732135,-890.4177503594183,-4867.348806040029,-1686.668838810111,7165.383133441926,14207.863260840002,2435.2384354382984,-861.4683461546796,-4859.235378290884,-1649.6978462002444,7100.126927305927,14312.505602697682,2425.3151387093108,-874.5576517721626,-4856.077371236846,-1713.9131745984243,7309.977329058003,14262.043362801802,2441.6615297758017,-867.7218666484537,-4871.911130728885,-1501.1404800708613,7202.222685488807,14136.314377203145,2441.4187726106056,-857.3706025168759,-4870.173983692346,-1561.7217233408887,7321.639624391786,14375.685416464945,2435.3916401576407,-879.8472760623431,-4840.928521213218
-1628.0,1932.0,15464.0,2975.0,1254.0,-2410.0,-1704.3620313922424,2058.566950153919,15454.183508115755,2961.883294360383,1264.460286246165,-2389.962204145499,-1786.48185092836,2061.095601827031,15524.370486141719,2954.7493872376413,1252.4981463639688,-2409.069958526507,-1598.9658155439358,2052.2489399989267,15427.383649283238,2977.5246569755427,1239.7618657963064,-2412.2697886032065,-1582.7174206079567,1860.5294479295383,15490.125841167877,2968.2009844801255,1259.805323992457,-2423.4682225565493,-1716.5127461010084,1870.2093904428746,15655.754796420522,2989.571335702682,1272.049954427299,-2392.830107130508,-1722.6586401908387,1910.315205970525,15690.448399571198,2982.5921143842625,1255.2627082372699,-2418.948121604024,-1619.4685181849834,1882.9140983815498,15376.565620681104,2966.6864058266365,1249.1220401497894,-2400.77483450764,-1657.807931430992,1819.3783069501205,15565.964875975853,2964.7331013597045,1270.7309342313238,-2419.2829563579817,-1649.2738251957026,1893.908790080195,15497.58323140368,2976.652785388511,1252.2048766588532,-2402.3608993102957,-1734.941879987935,2074.950740453083,15491.973101273577,2979.3365389211217,1245.6732246083966,-2407.6086691239016,-1608.0371018925216,1946.7801450589989,15567.785826299896,2983.9161232357355,1242.4810694764712,-2398.0607224810656
-2500.0,-1772.0,18316.0,1896.0,-684.0,-971.0,-2406.9697786527627,-2135.453791302519,18290.967685947962,1892.1361656313718,-663.1113556518338,-989.2281834208219,-2611.7897133698916,-1745.0090810368863,18253.36966618766,1884.7242943076394,-694.984667031804,-969.9273592304608,-2583.332421108833,-1810.8163655395065,18360.27170683629,1901.7170989051674,-674.364331344896,-967.8754751510886,-2571.4852258313813,-1620.0123247952142,18283.93664571172,1910.5227940848872,-680.6116846193485,-976.0069072842542,-2348.882138879892,-1808.7071408078652,18351.40038525812,1895.360730806408,-667.2348199567872,-966.5669196048705,-2454.695175401341,-1878.6032881384244,18411.163799941733,1910.0677083377075,-701.6300217834373,-967.6571769852557,-2286.346976008259,-1716.8538905354467,18566.34870809241,1909.3617845618824,-686.5453636937847,-987.7705036846078,-2364.092411373502,-1820.234850316508,18401.29686199384,1915.4843282501788,-680.6956139239319,-977.7001195606787,-2535.708354669998,-1889.4627425033837,18353.459736600133,1891.3490213461082,-672.2315511521003,-973.8734953786118,-2458.8584476255173,-1789.0724932809262,18359.068301548763,1889.777173676058,-682.1616803893415,-971.2983446399492,-2533.0834083599707,-1595.0055931699212,18336.589878403676,1893.1953861578831,-680.6962533455514,-933.6488549377325
-4288.0,-4436.0,17184.0,675.0,622.0,-901.0,-4373.363770899446,-4339.502095933472,17060.21349770569,673.779689680554,626.544511464899,-905.8023782725306,-4464.930225581711,-4509.822746428533,17292.232771831495,686.6272934264074,636.4487489697639,-907.0622482081741,-4289.33051296588,-4374.525584965142,16953.38761232703,672.5709323064302,615.1972719843762,-898.3228618383364,-4277.857201083291,-4436.881964797658,17124.92187308082,679.0494717014093,617.0225847044973,-903.4596973410563,-4118.827621668225,-4415.106904866809,17058.55267193651,679.8940119446876,622.0427743830876,-908.9699002087195,-4217.63899299275,-4320.815779660941,17094.356772537933,683.0605485777244,628.1981165271818,-895.9589825838444,-4258.317565633583,-4565.245436061131,17203.1532546785,673.0593679570907,626.2675000655997,-890.630966028832,-4432.614017054849,-4534.945154983693,17190.182175168593,660.8915125596981,630.0711967285122,-916.9852771884074,-4264.321128438587,-4650.5723283014,17371.018957129858,660.2828571828078,615.4135949927024,-872.4134859727441,-4205.7016044407665,-4360.79064138192,17217.874614863817,681.5253009203057,618.6808594240943,-894.8692567756034,-4288.4150757273355,-4604.042407412908,17216.56786172375,683.3165599160673,616.7053839468581,-899.4547006806473
-2812.0,-4912.0,17188.0,-1202.0,-583.0,1728.0,-2607.226286163093,-5184.641710572517,17089.166096102803,-1196.8580226933038,-558.6317152814077,1725.209989062596,-2832.5326364603966,-4929.28347956713,17242.984175669517,-1217.1834150489126,-578.7531282527968,1740.8887349709373,-3006.5335524829593,-4885.866157022135,17422.767560037362,-1200.1776553153063,-580.1375979924463,1724.5500063159723,-2813.306361231184,-4980.71480922341,17119.55914393585,-1185.9906701668478,-582.284598133421,1724.1199530579015,-2825.3274984997333,-4859.5885366793555,17076.8457293308,-1212.570574456571,-588.2225827220386,1730.1888435169785,-2894.9088266666386,-4879.694797022873,17189.203217610662,-1182.462582889991,-582.3807376779109,1715.8877808499576,-2800.7413964121824,-4852.723573022733,17204.449688101362,-1202.497045455072,-581.2907493780039,1719.6313827249555,-2809.4942392556222,-5088.8710361261465,17144.65374534003,-1195.6980776309354,-570.4527675824271,1726.2665318702116,-2873.115546412119,-4939.829203122102,17136.834239465526,-1207.8444989300178,-569.0957018941841,1724.6990086557762,-2682.235062805448,-4893.879215485692,17215.378716275267,-1197.4824261176875,-577.9479830611416,1729.9130251705417,-2646.6835382104287,-4788.800171880858,17178.34083542766,-1203.995097667877,-587.0181791866287,1746.3419508441648
-1688.0,1124.0,14400.0,-497.0,908.0,1844.0,-1585.2317267698943,1320.2233902621533,14298.85832428193,-494.1620508994325,894.6489077236614,1857.0409722979957,-1639.0137668206503,1088.417035879908,14508.067437034828,-499.81487829398736,900.438157458401,1853.3052110707574,-1683.4847291767753,962.0545922696069,14434.3409117748,-512.7857142546385,894.5503504322326,1861.8930159941865,-1523.5872918224138,1132.1858126186512,14291.56422619371,-497.8123910915929,921.1397641235038,1845.5876046684155,-1653.5175318006009,1132.8584132282112,14418.288625602167,-492.62163721534347,898.0919956194892,1858.8934647207225,-1649.7450369396322,1141.7428245920498,14535.356456514786,-497.68711698688986,888.8724597745654,1843.4058204146577,-1757.2952383237948,1123.8975559949504,14554.0354765043,-503.1596648767238,903.076235859312,1835.8284258995413,-1559.5416748998814,1192.5204488017691,14413.759532390664,-489.59929474773287,907.7281481796263,1846.125651985106,-1601.016551177799,1068.5652783217242,14294.540335244516,-486.8532096948253,901.7327043308359,1854.797751295387,-1535.410659342345,1187.035001885783,14297.285858218722,-512.7066604750912,905.691056631055,1852.288336263981,-1874.0184444640934,1037.6412371075826,14438.02259239486,-509.4168891038572,905.5696760212705,1845.4663168676993
-1444.0,9148.0,15816.0,409.0,3557.0,6279.0,-1324.461843858534,9004.38033598276,15720.658416417851,412.2191641264427,3567.1502403272175,6269.527982184205,-1456.9195233415223,9011.928754020832,15830.140580117082,419.410739286826,3557.0729047782675,6287.012927485761,-1584.324829775458,8975.115963710488,15787.474608480303,412.27869186252184,3569.48700413987,6263.2993875772645,-1477.831539495986,9174.860538260908,15834.813029354553,394.02430204213204,3561.9066290985475,6278.917063009613,-1658.7144428927786,9158.273716528916,15732.349583676869,416.39145505650134,3550.416224980086,6281.34891973819,-1372.5381464148975,9113.042706040767,15853.242091555618,403.07469659573525,3558.0138411934718,6294.238792057415,-1324.9723667277694,9305.27878224674,15792.791170741837,415.1478523266819,3561.0276902811215,6291.363752021913,-1340.8824649149265,9257.83478026149,15891.268604300249,409.5110810807159,3575.47660438567,6274.008250313753,-1573.0364697226184,9042.472022921334,15722.75610321155,404.41361768516924,3557.7330239891226,6289.038945810114,-1509.8655308292075,9146.997764583692,15815.468964100426,403.8946007948184,3561.5002830017393,6264.542871384217,-1387.836497648938,9155.79493131293,15619.59759086344,406.8776926998202,3567.0357909350623,6289.137925456512
-196.0,2528.0,16708.0,497.0,2160.0,3249.0,-369.6653723368114,2519.6971347956255,16702.765315077155,478.18512299855604,2147.6937388920414,3261.0369327717517,-93.63985741630646,2611.1655507781775,16446.790181604498,503.32662490011273,2144.010310217624,3239.758994769341,-283.13662884932415,2452.1865199898566,16770.82764292633,506.827177594029,2146.10651626246,3264.4707524681467,-215.50482832213032,2772.6759661058527,16522.570756513396,504.133533898089,2157.477550849553,3235.524161060431,-152.08178001361944,2542.018771488429,16764.91049916836,502.0543006815953,2179.3695910424926,3251.8303927550514,-54.18667130501922,2417.734165405498,16742.35928757346,498.1376951076412,2175.3079959575307,3258.5127622932473,-296.3284350367386,2522.7829346726935,16654.586532391393,482.83861775303296,2169.1236338812973,3273.1047168285327,-224.85983687955792,2486.5457732289224,16624.323682250506,522.7018644669397,2157.599024656226,3238.552270316342,-418.0597964025417,2628.9936788408413,16695.518100931036,494.171339207463,2173.9532137532638,3260.826334213298,-163.91180426309685,2534.923228898598,16888.770927557915,489.7815273653486,2158.1628746032993,3254.2245322241265,-140.14734098198596,2638.6611819628038,16612.97168466676,487.2300834370081,2169.2289266771663,3248.062979044514
-1580.0,4716.0,16804.0,2735.0,221.0,-3781.0,-1699.8390475449917,4631.238066517325,16927.865011611735,2745.6121394057004,220.56850664399448,-3782.748996945728,-1454.2379475511602,4735.658951975573,16908.97657453257,2717.96352216801,236.57474827843652,-3770.1858169720394,-1617.0794807819573,4645.911981867473,16817.67594494363,2752.891883776436,227.88269050971914,-3793.9044073409555,-1690.5250212543733,4507.995980748393,16691.06555446876,2733.6279380367214,222.344529556665,-3782.473931815886,-1508.1184491200133,4808.494129407545,16873.370682879067,2750.821389369116,212.70540173230663,-3782.058112740861,-1638.4022280403121,4769.934927203871,16791.922374741633,2749.3517485823186,211.85847076591713,-3793.0796272368975,-1405.1496498413446,4921.121299923795,16825.223402995147,2739.588958266338,208.07239499895098,-3789.794413398964,-1597.6338850866537,4738.387271025683,16766.836931370464,2723.8942143057325,213.44807978550526,-3784.7731344743956,-1620.4978530921253,4823.750091568267,16732.529456114542,2741.142270722875,202.51875183455593,-3769.1715259110533,-1637.388595821694,4845.397658841307,16767.65817375065,2722.6369322903874,219.6841490693556,-3775.5362904714866,-1624.1636033433315,4657.149420126075,16788.68693257855,2735.1643258838076,211.4829755545639,-3767.607201149656
-2556.0,7688.0,16120.0,5024.0,-1581.0,-10330.0,-2552.1756720139774,7782.274013805602,16140.191178001742,5021.364050548679,-1579.2364671556466,-10321.000439118809,-2761.764604798918,7610.085505437478,16360.327748492218,5028.736781111906,-1585.3559758584336,-10328.713815269635,-2669.0099754367484,7704.0669674580695,16396.293302133607,5024.148829864679,-1595.922024116539,-10316.892152157381,-2567.365738058934,7744.247123865571,16320.99236116121,5010.788347758025,-1591.3266763371678,-10341.68002498674,-2303.9324402738966,7604.425287155643,16049.047521985041,5019.984279868637,-1578.9795825347392,-10325.208090881833,-2465.9594987276882,7675.527317451924,15991.708689038378,5030.336681389085,-1583.1449227210148,-10338.638011761666,-2549.521373001797,7526.033831480151,16223.357980684015,5012.438377109904,-1585.4937645993166,-10333.98611807275,-2617.577716555203,7630.379459375021,15943.954322887976,5024.24673913494,-1589.4830400567403,-10336.788230427912,-2600.246617476338,7683.977251488151,16203.435198683856,5027.862941309453,-1595.9719775216388,-10344.74068737395,-2670.229525844725,7571.830611846273,16075.164264020763,5005.020656066011,-1555.7175206031955,-10313.559744819295,-2341.229709477922,7789.4393038643075,16151.867840736946,5018.975310578785,-1580.5090733658672,-10334.3771254209
-1836.0,2272.0,16696.0,6635.0,1058.0,-5194.0,-1819.7632655898747,2271.437841234415,17001.060195060072,6637.021227831922,1044.5371940570913,-5186.378103052125,-1786.8211041087968,2333.6252710780777,16580.430252650636,6631.7492576970235,1048.366267129849,-5199.245093929725,-1829.8282943842448,2148.4221995166217,16726.676310718267,6632.667413783727,1035.3171180068023,-5182.912091137087,-1754.8894121842486,2256.924551984199,16744.71759534918,6624.47977403199,1054.2465771373468,-5193.428573117958,-1782.274194661691,2218.6361068306733,16874.67268425666,6614.871628922913,1044.9030041771098,-5180.67281390874,-1758.7909529066687,2379.5262864293168,16828.935910803924,6646.184958640526,1056.3586473982177,-5193.716468345115,-1831.6643161978861,2165.9374757423425,16756.651319029406,6637.495225020686,1054.071900867244,-5213.1902208318115,-1947.319238176575,2367.995668399688,16740.494082916295,6637.0109255669995,1070.9709974307004,-5193.746290761176,-1939.9007018631653,2308.9226143251994,16515.048754051895,6649.374885540112,1077.2432754433542,-5193.526355587672,-1904.6918175894307,2378.7336936652264,16789.48586920273,6632.492282731375,1057.5280973289334,-5212.623877881401,-1816.3849681394959,2350.2327637797725,16816.01772968822,6626.769408523283,1060.5766565380557,-5178.469768368309
-1384.0,-5976.0,19580.0,1680.0,180.0,-1583.0,-1408.7887564927487,-6113.686893093324,19771.569668082204,1685.0742004962822,179.85047714281714,-1584.6586677582986,-1279.032798117325,-6052.803312666325,19485.330232718545,1683.840219692103,206.6047243567993,-1575.9624707949865,-1314.718815830534,-6018.317147727538,19730.310453814123,1662.2530141428551,159.766838156639,-1584.3874536314725,-1467.1750390975621,-6052.866936055395,19811.085541736946,1687.1883331358372,184.48320871207355,-1585.3324723574003,-1268.4047404574667,-6008.982139624823,19505.129636909125,1666.8026116323526,180.51656300866242,-1580.9257855470812,-1345.97295151719,-6004.7734905995485,19660.821726268277,1680.8961252904444,187.42784996825623,-1577.1856410375842,-1332.7003885668867,-6080.595206515348,19653.175393454316,1672.9180648584143,182.17324735270728,-1583.2081620701076,-1238.787071484903,-5964.988771676031,19496.932841001108,1678.706488650539,172.67486843446514,-1580.3959808171144,-1322.4382476764606,-5896.319829529586,19612.79768783958,1677.749601322869,178.82544769706843,-1582.0093230655286,-1391.0583792697228,-6065.648327402774,19498.095208962855,1676.5470047001552,184.25639756806095,-1563.8445263472324,-1448.2246860683886,-6023.929891915402,19741.630194054815,1690.6531584212164,189.85056873055052,-1561.6689767485934
-1864.0,-160.0,16976.0,141.0,1429.0,4717.0,-1698.996410175738,-85.58950160171148,16776.833069512064,129.86003846516178,1422.0777344830294,4720.471882265264,-1979.4203155868593,-38.20435659721183,17135.84580575457,135.2771717718509,1421.936292549763,4725.715337662788,-1774.5616921402373,-163.1472931515062,17003.880397251112,146.1249790671541,1436.9058870081137,4720.734923544222,-2202.661652746444,-76.09948598960649,16858.45566067786,133.0396001397147,1430.6931307273574,4695.043404955114,-1944.190770697773,-196.67861059870935,16936.258997401474,138.79422241462316,1427.710844435387,4711.76509242113,-1873.5759083278308,-21.358634864923516,16890.938099676754,118.87636119069384,1412.3549915354272,4715.066434600001,-1722.691799084372,-210.16524181562636,17249.938719969003,149.943302746104,1420.0378514791582,4721.730570327183,-2086.6806878505313,-275.0112862640288,16883.04839029665,140.9876494614277,1438.138881523573,4714.229135720684,-1847.4922869247716,-130.67714389342504,16951.307753050558,150.6343150494431,1417.369396109512,4707.2489849922495,-1835.0857381902576,-228.7897000426206,17079.75010844135,120.03597663131077,1436.220717058935,4715.706132897843,-1935.678015973218,-132.15695408325786,17075.603519878638,135.16168606742337,1434.6593702264665,4723.535823851667
-1924.0,1252.0,17184.0,-405.0,240.0,7739.0,-1996.0517516587881,1397.6077428772833,17186.457611052494,-406.36941743411256,249.71471084528983,7752.709500126903,-1911.02141775823,1296.2020682031407,17136.44874174468,-391.2354292637811,234.61098416787965,7730.945540541821,-1811.1893639922218,1333.5095055554486,16959.988900177857,-386.7385869440367,224.78388808623225,7760.234148651928,-1883.8650805493764,1400.562101993095,17022.55369922512,-424.5744561335178,247.19568177818465,7739.727211105912,-1912.0911359899533,1234.0191280511617,17448.28580862064,-406.967087961679,223.65431424915323,7743.863912194222,-1898.631375277177,1076.8924640744367,17204.36006172782,-399.5921683283307,240.81297368363593,7742.45436220962,-1932.292515178007,1259.265746774942,17282.55860058521,-405.06224478872366,241.10882846754978,7749.559041355968,-1830.245858043475,1272.5660193932963,17289.558874896375,-387.04672322887814,244.4470000330308,7725.191626020565,-2005.1976066331697,1514.1259606991803,17059.70181003539,-420.3039991838117,235.9033379730608,7730.860778593211,-1993.5858883734438,1380.391157885922,17271.93438502917,-402.38417558072166,252.2253002591369,7752.905547992217,-1802.0561652156089,1402.6088794688694,17160.0185239434,-413.2769924114924,252.78544040467662,7745.772206583209
-1140.0,5732.0,15948.0,549.0,1006.0,7736.0,-1180.2758005383296,5737.892922762542,15756.532878219412,539.7377901855796,1002.0194266329504,7743.474356030244,-1067.6485195420785,5694.652129035223,16158.365177319529,531.1853984056236,1007.869190962465,7722.191364316345,-986.0708928237284,5488.240498104996,15995.865600918303,547.3702529824351,1025.4817842117145,7737.396445610217,-1088.7619324370974,5731.879569699417,15792.788516937651,532.6721639837822,1012.4460079429837,7725.895297993675,-1071.9923148687446,5772.350623355366,15925.167393466707,546.054503919387,1014.412973858927,7743.741854109413,-1020.3931615744069,5712.0793259370885,15819.28421342849,558.7930383101424,997.5759921616569,7738.049181750148,-995.9679244276422,5740.093611016171,16018.943807617017,545.7505662315042,997.927997427761,7738.752615898751,-1055.4339944910682,5891.639377821461,15919.027073883715,555.7525938735812,1000.4217054184734,7735.057967929104,-1057.692206913925,5802.367169015236,15915.991852409279,552.8681391020905,1003.8155075044851,7744.976364526046,-1106.0937053042092,5639.739382826894,16088.171321664555,539.6216884247468,1008.2683854372575,7737.7340016322205,-1350.788505603545,5745.200803092193,15768.397555929814,540.2378287159231,1010.4191971620482,7738.792461483086
-296.0,1364.0,16888.0,742.0,1302.0,1182.0,-394.24804898115644,1277.4643725537644,16622.077950775347,723.6940168065609,1307.9503607638396,1186.5715389172908,-217.0882149121303,1405.701590375969,16982.46205226365,747.6538824194541,1300.419186041704,1191.3760271850088,-292.2354067985168,1398.4978548637685,16691.381791648502,718.5673830648568,1298.5681375983825,1164.9151621650328,-178.18069311668262,1407.6171261501336,16945.081505785965,723.306311067624,1305.263973228958,1200.3187934881594,-248.81246055183095,1146.706856803616,16965.64785384134,726.9728410977457,1306.145038911178,1194.2781180331533,-344.74085459044534,1478.6675659966832,17005.567401904027,753.4247565567647,1291.4316723552101,1187.2457664403955,-293.5578838030645,1372.4077583798862,16764.876495655346,724.3742485383541,1299.076851350117,1171.6025022054296,-384.74401154102384,1237.68603951236,16660.34833653086,743.890795836191,1307.3002118460324,1172.0524736620662,-366.48778062624103,1243.5731400074162,17058.63741106381,735.8975164186319,1304.294643819743,1183.4590860287587,-358.0857659810266,1354.4206011932044,16881.738861897917,753.9259480906429,1316.9563839284374,1174.3731221208157,-415.85633229351504,1540.9861335751848,16961.72083692077,735.619787139249,1302.8737225884154,1200.903733480649
-816.0,5152.0,16648.0,2463.0,360.0,-3530.0,-740.198161266888,5158.600752609494,16453.53041513999,2457.522657495317,344.5626372501775,-3542.0445145892404,-804.2192108541976,5218.82234696305,16697.29960963056,2457.2601525038317,367.66763398910325,-3526.7779147034985,-789.5450954312736,5118.998895269307,16661.248396253315,2458.1422030627396,351.8293677598847,-3523.1463124166926,-962.0939068568052,5096.831752017073,16856.861066534962,2445.340552865444,366.757038867653,-3518.6825078831303,-745.2959964924546,4886.07572516899,16433.86545615704,2474.6466494602687,335.5081735955469,-3538.5686659329963,-762.742828123484,5177.976908958554,16771.85296235952,2465.6164384056415,372.90461316910995,-3537.752587917429,-951.0611712414724,5148.897161817662,16858.46012863397,2452.207883617702,358.94714015328964,-3536.9039206363236,-745.4024198226589,5044.9358317034485,16764.4878823536,2453.6345308124296,354.27575079825607,-3532.1658374317517,-889.6133489730416,4988.43703774166,16685.052095570016,2468.1225359915,361.77032130237995,-3521.0777759703965,-757.600031636036,5150.331149511031,16828.148102480223,2445.7357696428944,364.76670454354894,-3547.635184306663,-756.825330456649,5083.705288725055,16695.872029941944,2465.269238139196,368.7234353345596,-3533.2823569576162
-2896.0,4776.0,17132.0,4068.0,-2538.0,-11585.0,-2873.758552054048,4831.384678230079,17238.386595052136,4053.863292380509,-2529.8294626073252,-11578.070315330851,-2802.6932240344713,4799.892830385874,17018.958112930744,4075.863530941762,-2550.850019880025,-11577.851650372415,-2853.389346803269,4634.89751897539,17171.96530453594,4072.1068553038826,-2540.947488233523,-11572.17751194196,-2867.0103081677926,4791.558487150634,17213.21097192463,4062.5072849186645,-2544.7247509912036,-11597.5999582743,-2875.091751094445,5025.280750393787,17228.906640006462,4075.234389882369,-2545.9182245792945,-11609.396792708874,-2831.8648171129234,4778.093280640596,17288.225144414537,4065.125717978955,-2548.244145085473,-11581.405758981165,-2877.837234560353,4786.778820728057,16996.815178580662,4085.408305510078,-2544.3552154153967,-11572.4324316814,-2991.8264574576465,4684.44376423675,17086.633852892435,4066.7709945692495,-2543.2469824479253,-11604.415000640169,-2874.613647805585,4963.577695746733,17196.933919284795,4049.4638062098024,-2527.7163255067558,-11570.121343040164,-2886.7580495373804,4636.268026533097,17176.493543588225,4071.1582024407717,-2540.7646620242094,-11572.012946756791,-2825.8061432144177,5030.045216355819,17107.962690955817,4051.392262980917,-2536.999407917016,-11595.91497854119
-468.0,3004.0,15384.0,5757.0,-62.0,-13803.0,-580.8217926469279,3098.261691036826,15451.722012331358,5740.181023753121,-55.43174128092903,-13802.529205859888,-572.9542774490576,3048.1369781364706,15505.246296859921,5756.591781915213,-59.505839400192826,-13788.868279301341,-464.47030583735176,2792.1952521857547,15537.80255719168,5768.438438996574,-61.46822970442224,-13807.138299967532,-632.7377015965171,3168.6437156048064,15322.526087523609,5773.864429439828,-72.6895600313414,-13823.704741336516,-513.3959362551941,3031.63886314493,15246.147741285587,5768.456817920268,-72.88641422358633,-13803.740624072152,-630.359393655172,3063.209520238809,15381.547539960484,5749.737228766598,-76.34466979305613,-13813.112671404877,-343.03194800193506,2925.757908000892,15444.115896357005,5750.413624742694,-54.792278036795636,-13800.995127973543,-360.07577999601006,3022.3791677029144,15491.419040731582,5758.5970324666905,-66.13415634130276,-13793.468487921911,-511.08417561860045,3022.067418087832,15236.760328466893,5754.89207897741,-57.48717463620238,-13813.848932805684,-664.7635918454524,2987.950289465318,15293.330103331507,5761.146361094922,-68.73157975132216,-13805.279527521752,-342.6943219527026,3064.8468181843,15280.082629090955,5755.469230841593,-56.03634597815313,-13792.24246504877
-2180.0,-2416.0,17700.0,2714.0,417.0,-1993.0,-2192.995142307492,-2357.5916465091336,17709.03098810333,2710.4856056508966,406.74945099233344,-2006.0926751635595,-2140.6404348756428,-2413.222765271028,17625.3370421831,2720.207475552569,398.4807269036208,-1995.0612544952232,-2231.5333680614167,-2111.0619419025356,17666.886898669323,2713.195267902368,407.20557736770576,-1986.0816155161801,-2197.471916563982,-2292.0538291532866,17865.50140408243,2729.138585050114,408.19780353173167,-1993.9571593694222,-2050.6475231377717,-2140.737524346491,17509.131294925304,2718.9140151824226,418.6858149689071,-2003.416617108919,-2121.3140905407813,-2426.149217584405,17722.372474551827,2740.00303399149,409.57430321174115,-1993.9346182155152,-2066.415454368703,-2448.660368780525,17623.85457359389,2702.1187524154684,401.541126173804,-1997.690731189813,-2103.0009092251776,-2329.898947932756,17709.729009367227,2714.100081327667,437.2041478819864,-1986.791424277462,-2147.905737369869,-2433.99875783887,17759.69224733878,2723.0488805866225,419.219088564668,-2004.1874466587442,-2209.585564395527,-2323.3704532365423,17763.135538370967,2723.493170975467,416.9464951978881,-1998.2454746039034,-2274.2082113515353,-2287.260315988269,17633.38607497742,2723.0724126528585,397.886235043207,-2003.2988174749412
-1976.0,-556.0,16020.0,2994.0,2587.0,2336.0,-1906.7052527159583,-459.8769484545961,16134.418171004478,3004.2153615873053,2584.966716668361,2346.830506599827,-2114.4739987182065,-459.598183753112,16127.91693369656,2996.900354753315,2588.710211930999,2333.6047806383017,-1853.1066458153623,-526.2495867471722,15950.94879720216,2991.5348512571272,2567.9466247322885,2340.126112019058,-2077.409610435587,-599.4738740831116,16051.911612093776,3003.538032132325,2599.5242781219945,2339.6154816790377,-2006.1793818032252,-612.3124579369086,15943.178806320624,3005.357548236563,2588.4043189987487,2334.0272538251634,-1983.4008354864195,-541.1241960942215,15938.875333471871,3011.1797148394317,2584.2458273122365,2332.4752552817067,-2081.7919405584717,-688.839524323894,16020.206833112941,2996.7061734082095,2584.529357315067,2336.036759757239,-1930.2467132005986,-676.2343481305251,16205.979945565952,3000.228781239173,2589.377168768253,2326.7385329077965,-1988.0188211412321,-553.0622821410842,16080.295740600015,2974.1485600921296,2582.948759344983,2322.287749475233,-1890.9284209125624,-532.7368462740906,16020.620937589523,3005.473153037548,2587.4460945185137,2335.603576210981,-2036.9079284824247,-619.7032303902071,16263.68082945137,2994.7832762736753,2563.9035967458317,2352.7199957981697
-2332.0,56.0,17700.0,-552.0,2983.0,5649.0,-2150.8615371271576,-103.77917430843414,17788.44060027368,-557.6150272399483,2980.3159753146615,5651.074284784054,-2486.7560797912747,58.946601196432546,17781.721807630925,-556.4585148826777,2997.5282572591955,5647.696510161829,-2356.63738979301,35.36061413553638,17733.229686068316,-545.3053763931957,2978.7858094469743,5640.444223287675,-2315.5483051227857,27.187441047586162,17685.856213833158,-547.3990047667318,2985.0239145489654,5643.898833379825,-2102.886737607459,44.993739959260026,17701.35351145639,-558.2846583526582,2994.642805389263,5638.112921643536,-2322.8401963722145,42.29770870808167,17698.40354899347,-568.4337911710628,2988.0446798410176,5681.9405671443765,-2409.8386804964484,126.95525982240947,17523.017343256004,-554.0550347218975,2985.278594062507,5651.446684142473,-2267.311520653469,125.97583101120999,17623.333638796328,-551.8698625496584,3000.8585092647936,5652.473632483593,-2435.194145836634,83.7495978937259,17897.49555248978,-554.262284683919,2990.922241494322,5662.269245640887,-2278.9811483490607,-170.61310205980234,17717.777410283463,-538.2025421590736,2978.266221385184,5652.372382244011,-2304.4119318115377,110.91530118399872,17617.199371557854,-547.5527946549335,2993.1031806735696,5657.840768377471
-1432.0,3696.0,16736.0,-1140.0,2608.0,7204.0,-1467.79919050248,3597.227913199587,16912.172658995503,-1148.6366195041564,2624.86859214549,7210.285427758675,-1524.9062279541495,3574.2607540525814,16638.153481673577,-1145.1112539005035,2619.927392083028,7196.92118367463,-1466.6758132010154,3640.027556744439,16774.17390923371,-1134.6807218265226,2609.2330759533056,7198.908585444966,-1445.1007760157365,3711.003155888865,16527.81888604804,-1149.772224687695,2618.8624343375395,7194.342554670319,-1349.115971074679,3610.8037402649784,16653.640014860368,-1136.796672368968,2604.884961052707,7197.603066048802,-1470.94308448843,3820.142452962819,16739.328109951613,-1146.806198481697,2604.3860270644254,7209.368092987538,-1507.30957237983,3801.0973231194857,16724.354992291897,-1142.2565609102585,2618.045153020936,7199.30620695508,-1465.4117753923117,3798.4853688931457,16800.581355389324,-1150.0259793408268,2610.51821588238,7217.62313584124,-1441.4031295946486,3538.8463425703358,16715.802034640277,-1129.7089760253791,2607.860622382127,7206.196359983796,-1376.856689495807,3787.3179130098524,16670.3679745465,-1139.3897468171049,2617.689206410651,7198.814516369453,-1387.7655050489418,3561.574260310162,16607.382215209585,-1145.4874203411819,2601.590508192251,7198.480993644842
-592.0,7856.0,16000.0,1139.0,3220.0,7024.0,-475.7745968269332,7853.841748939088,15915.763542308066,1135.4495950593632,3223.4279673358715,7035.679973646099,-459.829090761161,7869.910767110802,15946.465584038597,1148.1786041984772,3216.6042096661217,7015.271279568397,-696.4659549753927,7845.955153567227,15945.257493134144,1139.324625900136,3228.4498915122963,7029.427030573687,-728.8915202380532,7757.365199471796,16202.272331581735,1139.116179438547,3234.517920900858,7024.283186453486,-776.3662554505265,7970.984243966932,15961.231651759217,1143.1227572145615,3216.902515402523,7020.767628900748,-668.1595236455997,7791.286605773048,15967.044046847865,1135.1434571127577,3207.9445195440903,7028.231045515665,-646.7257023784223,7910.5212989050815,15974.892486942275,1132.5224898464335,3226.9210204570127,7019.887700791187,-427.7963292834613,7819.6492533793125,16037.784274076714,1151.7025649338289,3215.2840997980757,7030.675237087421,-513.72149271986,7856.056007735286,15991.112154744287,1144.82504099523,3227.5786332040243,7022.902771314021,-700.1540025127796,7773.220694848647,15977.570095047959,1141.115026644246,3208.963071330161,7017.78327356621,-629.1818365568856,7898.352327923403,16047.797114199593,1140.5689703059388,3231.3536933827227,7032.763542027412
-364.0,1524.0,16328.0,659.0,-20.0,-2198.0,-280.8182708156701,1640.012504553175,16355.864871350903,649.4116412625671,-27.256031855765663,-2194.36946777162,-134.8314535247769,1457.322223096773,16405.363163253507,649.6455097994577,-9.739038013601212,-2193.3381798581563,-298.59143691943837,1513.681575860326,16370.45203256475,647.8679619414527,-23.798884581578925,-2208.5963606437977,-272.25839433210126,1555.1176065591214,16338.275332387058,682.9434388973485,-5.8731017716076455,-2193.410713344571,-323.16772827876486,1415.6015797620141,16440.709453580628,667.5909381965,-27.887530988462782,-2200.8608269427123,-388.9847718135938,1494.2463116382041,16417.217886932627,656.7440966867243,-13.468398177408154,-2190.3564691526663,-372.40310656421195,1589.5433539868154,16356.11188339177,641.627659624929,-8.534839781286106,-2195.124488572097,-329.9509682734832,1645.6355419983809,16028.24852459344,652.1673337547608,-20.132068633581593,-2199.2185747805925,-450.0841760819857,1343.5648878010659,16319.788307489856,670.0003823432049,-31.801760653655602,-2193.9755711377447,-199.2590557760201,1415.0858854505395,16396.192913335683,659.3550787405225,-20.208483686424586,-2196.4734967404756,-333.5093762265299,1702.0661070942815,16313.724513786256,666.1618219920634,-1.7157145675416388,-2208.1230323628843
-1408.0,4648.0,16924.0,3155.0,-2268.0,-9091.0,-1413.3126793877268,4576.473236888142,16990.270885910733,3138.5870597714443,-2267.332932812603,-9095.143184927085,-1587.6763482468348,4587.206036121763,16973.62137156466,3140.340310262479,-2276.3025794726045,-9088.641944232757,-1333.3838451752247,4681.497354669753,16780.36059581767,3164.164120156214,-2243.1942648018153,-9095.905298299636,-1438.9349804011408,4722.288081363916,16909.721939764295,3137.1703733594513,-2283.104309823676,-9101.307814774842,-1268.0109518299344,4650.061497127018,16934.716809292968,3158.198676893562,-2270.4468521734707,-9081.481957500298,-1485.093779886713,4734.06477182944,16850.44742782821,3161.437481681693,-2268.7823404857063,-9085.854455657518,-1372.6579281144702,4752.665846936912,16851.071859625794,3147.940264482942,-2269.4475247394007,-9093.31222465716,-1434.353176661258,4547.334373008282,16996.899776113234,3143.896561737543,-2259.094052513402,-9082.555072139949,-1526.2529342771343,4721.525112660127,16882.0470246525,3153.6468430826444,-2260.8575908834273,-9103.176126592241,-1342.745182565383,4597.619428929047,16782.970834428175,3136.979087559588,-2252.9538293941087,-9097.418824238282,-1397.0227476866476,4439.253123256256,16912.481014247205,3147.976862693036,-2273.3585681353456,-9093.496329694759
-956.0,5540.0,17240.0,4908.0,-4272.0,-18925.0,-759.620859961585,5515.227204733964,17017.30664066656,4897.35036948516,-4270.095043309361,-18925.016253751066,-982.0175002207105,5647.226614517231,17189.93095776183,4914.83610578536,-4274.910641133213,-18914.145308628846,-1192.8580301412424,5424.012495437277,17292.047720895316,4910.942268145012,-4253.741794845429,-18938.064015563712,-916.783907109909,5430.468021876013,17326.275407162542,4923.605913694713,-4270.879286852991,-18930.645554480252,-879.320766553153,5314.886252215923,17078.93103906303,4914.204072875583,-4270.358289319526,-18915.666288473636,-1030.0777986044186,5412.586964298691,17300.910320654533,4905.346520471023,-4274.112206368445,-18946.47978769804,-950.5713942233424,5595.188250795958,17036.492062242607,4903.003550732333,-4267.23069861627,-18918.517376437318,-770.5604736507748,5558.443081265479,17248.905511143454,4911.439862895687,-4272.0681974923145,-18917.50857405714,-791.8404383171033,5579.85913957703,17121.21794470486,4908.415610438424,-4266.6328244614915,-18930.38857895292,-856.1850693465359,5614.429071155777,17309.696170162064,4915.0843173816365,-4280.417992336008,-18923.354210232108,-928.1544467161932,5430.909423674663,17311.420442940747,4906.422862684276,-4279.3806019102485,-18926.34030151466
-128.0,3748.0,15820.0,5321.0,-143.0,-9385.0,-280.7934942517589,3591.9967673835804,15840.996834801192,5333.141766196058,-151.89708992277423,-9372.88163269957,-260.91028478913904,3709.4351817721235,15678.944089786013,5308.514070794583,-139.6797147542937,-9389.440423001644,-339.1450138458652,3908.55924253197,15860.822159780098,5307.702001660738,-146.16868499047254,-9374.156083044112,-244.40897361874312,3756.868311667169,15875.214060179114,5324.377089353867,-149.8774513782784,-9370.30165205523,-98.88535550187184,3882.1871444466874,15814.688727344175,5320.507060377292,-139.12793744468487,-9391.703095285453,-281.95648422360216,3601.8740138114317,15963.572734870668,5323.111901004922,-127.4792077730824,-9392.856421196948,-139.45383893524894,3872.369706052602,15859.79983337948,5324.598061921596,-153.8131799629901,-9392.776133623707,-146.66875240280365,3564.47390237725,15671.951779795529,5316.416687631689,-129.29177528091705,-9379.038847035225,-244.88859362030666,3689.1668286377085,16011.064236264985,5328.156622732387,-136.75749731270113,-9397.015740460392,-300.4529528611138,3853.721752874177,15921.503732933294,5320.597401723824,-142.05065237244253,-9390.2008235378,-263.53693450649985,3696.1892425467854,15678.945245766698,5326.488148877534,-148.61250899611315,-9396.3458090163
-2744.0,-8148.0,18048.0,1425.0,854.0,921.0,-2831.8511058433232,-8214.465209558171,18040.18522607532,1446.3721050642246,846.751391943199,938.3562757273186,-2709.356182555206,-8240.711831239807,17954.93048969011,1427.4541460130622,846.558829148867,919.9972341460282,-2632.999828952963,-8219.002241691624,17949.00128277261,1429.9549054409013,859.4383667108962,925.1285646299448,-2679.668897198521,-8051.57355255025,17944.636169839727,1413.764763641795,839.8547729129381,928.6517849567762,-2653.977220665942,-8306.46020399885,18134.952612198824,1414.2977856658226,848.8188403893222,913.6797063356529,-2778.2755185574324,-8094.117974150354,18017.28623753669,1415.186281964907,847.0201835330023,926.7801366223268,-2779.0797501446386,-8156.4770150927225,18145.91980607678,1422.1851544447632,863.9723279847522,939.6515212006516,-2474.397485582908,-8181.240705629419,18219.127119671084,1430.5423183302587,866.0277255517375,932.8816223862109,-2819.385880116516,-8260.600545721212,18068.540054973455,1411.8988703834923,839.8540909438253,905.4293115608053,-2781.966961284072,-7992.752113196457,18054.614204421952,1421.7909031658617,839.0481321406997,922.9180759789923,-2699.3200641560043,-8074.131926573608,18160.207598517736,1414.5617110725984,864.1823782262584,914.5583522574686
-2112.0,-996.0,17560.0,142.0,3678.0,4292.0,-2094.4991763619023,-962.741176149666,17457.683292258327,141.2179341796626,3676.2437710132576,4298.780476623363,-2126.036601796156,-1042.3746101597064,17561.19445111721,140.47165794778653,3664.342682688223,4307.600409366274,-2102.231091720636,-1164.3194190438808,17532.85291276243,126.00925166740149,3662.4155254533002,4299.723874152773,-2022.5298249545265,-1115.5097564603902,17537.3150960605,137.50212042853656,3683.748350796848,4280.328851220697,-2117.4184881813558,-998.5322677684105,17611.358049056747,141.25144865810793,3670.804668816415,4301.760689250391,-2027.0177143890858,-989.365681589623,17617.48350593343,153.2510631579276,3673.635691275636,4296.497670533783,-1842.2814229175667,-1005.9759043718475,17617.83521389293,146.98555597119613,3678.3258405378456,4285.603207453758,-2198.9945381611683,-1305.9984747996637,17483.485185784095,152.64076013837132,3686.0393683758966,4279.783269971849,-2172.930855508311,-1131.874598230205,17504.663310033568,139.10168067035923,3701.6633811610964,4299.8728105447135,-2012.6330042450886,-873.0546045124788,17503.335170007675,157.57334499401452,3666.644212674821,4286.769016922639,-2302.3109903207737,-1004.154793212196,17544.047732409115,131.03959981167705,3664.1868330683014,4301.015283522857
-3048.0,1772.0,16712.0,-2675.0,2888.0,6113.0,-3271.5984882751563,1827.420339689102,16628.43049640219,-2661.8156908485466,2873.4702947950263,6103.653215643374,-3201.87994038495,1600.0260196838276,16836.524002254653,-2674.2815265445856,2888.926692591979,6124.291563279836,-2891.3018898971086,1936.8629963892827,16648.247626961434,-2662.9623952306506,2897.5930121438973,6124.350906219068,-3024.3638334345424,1887.9277173229434,16677.68415160624,-2680.624559864122,2900.075850309925,6124.943307214295,-3127.4745075568476,1853.323013480526,16755.88467839952,-2659.9058552395823,2897.0561123965545,6101.5931114790155,-3122.4290846800955,1844.45881204102,16598.21748574758,-2675.3541787729773,2902.0099785730117,6112.819315761878,-2953.010387687584,1690.7727906063105,16743.202207567607,-2653.6998691472304,2889.260550158656,6096.898233670759,-2928.4126122400103,1848.016327593264,16717.9563172009,-2682.6267872067056,2895.500782205393,6124.354645468986,-2969.09352627292,1859.7151288311811,16825.10919489418,-2665.1149065524774,2879.932070603954,6116.937941639164,-2911.518898150856,1857.986303230187,16572.763652522146,-2672.792884248716,2883.231853269144,6117.740793892951,-3000.833562090624,1906.3179474667604,16836.17253674976,-2679.782265462196,2897.826346432201,6100.103223372628
-1340.0,5792.0,16588.0,446.0,4365.0,10025.0,-1363.4151513135498,5599.4200337399725,16504.46546838416,451.3483560010027,4370.712865602534,10040.066583324691,-1195.1271512128571,5740.14482320641,16679.8349801936,454.04173427406744,4366.624349276009,10008.005950179482,-1318.9077712854253,5893.7802144828265,16713.315116925012,434.1763606407536,4376.325553661616,10017.552492900904,-1290.6439271870713,5782.471138489721,16661.65491734207,441.3326437914769,4346.918755683047,10024.604741658637,-1250.687555549874,5863.486928303361,16617.16207364095,452.6927230110919,4355.343113715124,10007.802301346263,-1113.1746289929852,5666.862476963893,16592.87419592194,424.8884738993848,4365.233805496642,10030.353299147302,-1310.230140771419,5691.424082569745,16522.685592532198,461.7709043403349,4363.650662700817,10025.665551377802,-1332.350395126374,5867.559580846696,16671.98020423409,454.7564168986861,4374.130114775982,10024.330407673035,-1314.3071431391456,5703.37285242271,16670.482111425645,441.16379699704214,4352.53042542667,10025.289625265717,-1425.1555947709526,5775.369091488754,16432.94050430776,453.37771095625664,4372.193619231703,10013.555920632756,-1295.139769980699,5633.229080126587,16594.38448839147,445.99527939056026,4367.174442612301,10018.66703553728
516.0,8576.0,16748.0,802.0,3286.0,9333.0,663.3959775786144,8522.850386737035,16814.98606763527,807.2860523672322,3282.0318506336316,9331.57590156793,466.3329384661152,8471.616680194158,16688.703674651468,812.8431854871975,3299.52905782994,9335.924907706589,451.24161966676985,8691.832089344647,16656.501762483513,793.3705216887371,3287.1135255544805,9314.5011754453,490.9250017630427,8582.51526719783,16753.35164084972,795.778649924222,3280.4631567293864,9323.289086997827,511.65305594259536,8535.929943311057,16731.170445449356,796.4752629681108,3264.3672222777013,9312.31486727192,595.9534407284372,8604.397432537107,16673.485490968054,804.5557356190037,3292.152278120055,9340.002203428496,731.8614603505255,8492.396890360742,16617.163970529255,786.4216589507142,3295.2576165530895,9323.336293122878,479.09935901730915,8588.582319152905,16650.511761589663,806.2391190465013,3264.183895476003,9322.082752542738,476.0335311519382,8542.221592746253,16764.860710662062,806.0893126129206,3288.906369265656,9343.365335465667,507.71027139682303,8564.965771344867,16894.175643429273,792.4608994086997,3286.5305208373916,9346.881307289445,482.43665747948774,8469.225949477312,16489.97232357858,793.6273415289826,3287.116153493306,9333.127374631575
-216.0,6296.0,18100.0,2134.0,-1555.0,-3908.0,-94.37085840372333,6250.332035725607,18036.15942528728,2125.268810013921,-1546.7818757998275,-3920.358013858036,-55.644758434069814,6282.513110230104,18151.262310059614,2116.095086516139,-1547.327921107497,-3909.753796603235,-128.9595100817885,6414.396501533877,18213.67990006918,2129.5621314090868,-1551.724587902471,-3914.3761544041367,-271.50939562990624,6314.91815637119,18242.337298216593,2128.6626578685564,-1564.639641113805,-3914.315960447529,-117.60124717515615,6242.662768558304,18086.242033352046,2141.917110961403,-1546.1125793700978,-3908.4858813862547,-145.13064814318525,6295.18589077248,18129.95414897755,2130.0176121479467,-1533.8431270100382,-3898.785413346561,-199.47520623411856,6181.119562773029,18101.892650440474,2130.2197859674247,-1560.993904423211,-3906.553964219142,-112.38791523780172,6258.841388571498,18246.34864973511,2148.3366839774917,-1552.4265867486558,-3914.3515042647978,-190.75321133506915,6345.864598113977,18131.8210623062,2145.3505335494956,-1564.7110912659712,-3894.1090118824586,-338.6002543743252,6395.99644663366,18062.080467330976,2128.963231702745,-1542.4649496250736,-3906.348860664802,-184.289571288741,6302.967552236283,18136.64915038251,2137.3322673132784,-1552.0190832399653,-3891.7450171181476
-1160.0,4624.0,16092.0,4303.0,-2462.0,-10798.0,-1113.8143722867821,4767.9268955193675,15987.328389135539,4293.822853807729,-2458.336376818395,-10795.713366722177,-1151.3319114704582,4735.663183270967,16163.60432727547,4313.86819343474,-2452.978975530816,-10807.509682272826,-1128.160843450682,4662.594007565504,15960.569267236819,4306.1918916996965,-2453.9318577304825,-10797.150929546136,-1181.9247706212254,4704.624075807686,16100.38105757492,4315.357944020548,-2457.3306598943955,-10779.887867717971,-1163.0553223515085,4601.28651693691,16076.226333470318,4303.816129247488,-2461.8250419384985,-10791.826170676266,-1237.4200646015747,4504.465951340001,16140.932293535361,4315.386373345062,-2472.6991289364264,-10808.882821588006,-1249.070304866262,4593.332431663161,16245.639276515314,4296.590013319554,-2478.566909614672,-10792.458166100574,-1120.444852609249,4504.387946882645,15861.797258632547,4313.405677903096,-2467.415686770692,-10778.288512602394,-1266.1843295832075,4652.649307059331,16247.977452165052,4305.169491704175,-2449.594196439588,-10798.616464072433,-1131.9935789072522,4681.580441502085,16099.250040103103,4300.937699515545,-2438.434220628352,-10799.70533326365,-1137.780360120897,4601.772157122604,16201.531253381243,4328.160218453578,-2474.0872600097487,-10801.765149907582
-1224.0,2316.0,15172.0,3721.0,-3832.0,-17424.0,-1280.7224861647735,2313.4948445579457,15088.583682554294,3718.9122679372495,-3827.2197958012403,-17420.285822698515,-1082.1391553506373,2175.429155413474,15147.736220532766,3727.0095835974826,-3819.220085640874,-17413.3934832963,-1402.3924040636389,2445.1611021971207,15286.185009387034,3734.9268354072015,-3822.757254201841,-17416.224887579123,-1100.7266172855684,2116.197444771998,15104.21506607702,3708.711381963947,-3831.0560316285914,-17431.735183683373,-1186.0139621969367,2238.0844419934924,15139.821679575492,3726.694026460589,-3844.296219387745,-17409.934696930806,-1475.4844174435675,2383.656946468775,15114.35659280999,3716.693855786971,-3833.0399068834517,-17420.21255522897,-1303.176157493039,2297.114825887333,15251.424200476653,3735.3248137686455,-3842.125076646885,-17430.252214700584,-1055.8168838303063,2254.956980758297,15141.153822740234,3714.6191458180356,-3831.3403012587237,-17410.874223565417,-1263.453540744514,2163.7598039499912,15356.406803737564,3713.419816406019,-3832.744228195797,-17425.011721805953,-1165.3255419192374,2148.7011736468694,15213.809635875288,3705.3417764141527,-3835.6537934407547,-17432.118563604563,-1285.39233987129,2310.9843925090495,14795.00920537897,3726.500335172718,-3827.2696957564854,-17421.29570414134
1304.0,4872.0,14924.0,3914.0,584.0,-8718.0,1139.3620102849811,4863.880665056095,15012.794961928801,3911.1566909078956,590.5522391547651,-8719.749193762214,1364.1156232667583,4852.494249908549,14869.39225086216,3919.9545758554295,578.3008594538749,-8718.899532082482,1205.5288145782515,4788.396084022429,14892.58611656945,3907.087129262911,569.2910372392896,-8693.129336154036,1166.3176003216715,4873.4227978376675,14781.870647426438,3927.265291676179,580.9365728786037,-8709.435604337257,1229.2242113534976,5095.208718064567,14818.82634127129,3935.482570360267,573.9108486802714,-8718.79148354962,1373.5305759254193,4898.197103933699,15110.477872306605,3910.0893275001245,580.8693286122655,-8723.98573481006,1261.9991799642264,4798.952967545356,14827.527900774372,3903.1151528396426,591.791544675311,-8716.311607210859,1309.2682465842367,4753.958705222315,14911.53643195444,3901.5195062827233,564.4325314781995,-8698.448920275512,1512.4984918196703,4805.848325438704,15086.394338032977,3916.8393394696022,580.4070717805948,-8730.259271727591,1402.462564992584,4855.049233527649,14798.95065651262,3911.7290653678224,576.0848537389812,-8702.380394813468,1137.7467840433271,4801.358103685793,15187.869469570065,3924.3288527110294,592.4815281440168,-8730.763400932818
-4020.0,-4932.0,16788.0,2402.0,2305.0,469.0,-3882.926384383863,-4923.673862275818,16725.708312516617,2396.979499129388,2312.4814484698286,455.5704629537366,-3936.210815124453,-5061.259422268192,16685.645608000043,2410.8660058886253,2307.9592893249023,450.762899292434,-4026.7080786373795,-4962.926628141894,16716.91541964774,2397.8915367790946,2310.065684548502,473.6929074651872,-3982.8088250230307,-4885.577255004474,16854.606272128713,2388.2230387766663,2298.28748847186,483.42670620973047,-3979.6977903259585,-4875.057836650515,16766.795887071217,2393.8827240746286,2305.9909599597195,469.4475794002759,-4134.489272783004,-5061.800889411788,16787.90418694396,2404.979900565479,2301.446535319641,443.6820514060981,-3791.3547349510186,-4908.373586964117,16826.8906125943,2412.6124009157925,2312.3715225468814,461.9273240881121,-4184.963035288624,-4853.778524593033,16751.49891007511,2407.094260261331,2317.801415351301,477.24919782123027,-3937.203047224052,-4755.194511505982,16805.992311564332,2406.8420118160548,2315.5677929044564,461.8282409657595,-4081.1890051285104,-4937.3273990125235,16912.494754173524,2410.117973708186,2305.1838343975346,456.3481384804441,-3960.180572069143,-5079.898721549702,16703.750202369134,2419.4085605612026,2308.6003790332975,460.5136615740934
-1928.0,-1548.0,17724.0,-49.0,3477.0,2619.0,-1993.3664275169851,-1649.1802726069538,17744.840587658295,-42.538843565744195,3465.737302781591,2607.240735959186,-1999.7658976564126,-1523.1725478324183,17780.046660892654,-46.46230838130329,3489.5937350989566,2612.934698158827,-1904.8283441749095,-1645.9283741409133,17735.104625081483,-61.04555167000719,3470.853243532948,2612.5289009408584,-2074.7826175384835,-1810.271606728631,17730.028637476717,-46.05420951559882,3472.847633985106,2631.718968831326,-1855.014403765704,-1492.485449960754,17471.566985696998,-52.88581819333098,3481.115664166741,2633.8754477297416,-1790.94047287055,-1508.2998406486672,17727.954441620728,-36.292956710603036,3467.1531872537466,2612.21786237208,-2152.639201760522,-1494.1653983331119,17709.175358238786,-49.833840852848894,3476.1050786008946,2619.885524134045,-1959.5537757450554,-1409.5941196708438,17876.838344309115,-30.458842866700675,3470.738945284824,2621.4259323030046,-1819.6103177579619,-1745.5806133517729,17702.85378212117,-51.12293543221788,3478.014078874552,2623.8696893064553,-1959.986583557595,-1524.8999067232867,17834.363043004523,-45.36224282870862,3481.381458983465,2619.8700961028576,-2007.1787031015776,-1548.4248297830673,17574.60372120294,-47.13868466633664,3489.030986785056,2621.289913768861
-1848.0,-1184.0,16636.0,-3338.0,3541.0,7357.0,-1756.5607173888343,-1224.5980915439684,16571.974179841593,-3333.5700017271324,3542.273896902788,7353.829547184447,-1828.2250928878495,-1305.4813951024705,16567.179566795625,-3341.0815762674542,3519.386393584951,7361.336707586699,-1811.9730326672684,-1247.2244651153528,16677.828345181548,-3327.1138570898324,3551.186447585842,7370.66403768535,-1708.953228446201,-1336.9652937276087,16484.48449091544,-3359.4539894851164,3559.644194622692,7348.023533455918,-1887.9901435691029,-1177.1568269718891,16755.37007204813,-3330.8226546894007,3540.3785954727773,7339.66011570156,-1917.1813856389006,-943.4455308566942,16760.116261641688,-3337.2803602812182,3537.578764072243,7352.155978146291,-1801.3453100693446,-1036.6549177496238,16655.60120132013,-3337.7009219085676,3547.4165420275085,7356.96890349941,-1985.723540059968,-1217.7960653661135,16705.98225835882,-3327.859804473868,3545.1186666707304,7356.446627992857,-1688.265595913219,-1354.8367455601874,16824.39293103989,-3326.4375732388603,3552.436485988963,7352.94602735821,-1663.2996829742383,-1263.2449119113037,16732.109530826932,-3311.3397786906853,3555.7570259199033,7378.331424828716,-1919.1084082331563,-1103.053893950437,16825.267636359644,-3329.024894760307,3560.2903203997184,7361.794154701731
-1612.0,2832.0,16712.0,-380.0,4185.0,10521.0,-1642.4221373193125,2845.965909496646,16678.202353349698,-381.3309313735753,4198.508209473135,10517.562929103917,-1505.865212156562,2804.257937133772,16518.836589203278,-383.3691456009889,4197.268611864592,10520.034398961325,-1722.4602473525663,2786.577059316878,16576.31689912543,-402.7280506876049,4178.543041836736,10528.516545074075,-1610.0009619075713,2819.091073890153,16739.700603973033,-385.6283417243245,4187.429294463064,10513.424098999934,-1770.8730300694351,2961.7521357637183,16832.381403386516,-372.50654402567375,4178.362118634279,10532.994831273569,-1599.2558048853257,2905.002635245549,16641.88502227616,-380.6645078340053,4183.15628703806,10505.773837653218,-1655.3066343732064,2794.2446543443193,16642.664572775706,-365.22971580936365,4194.760766564298,10539.541380926143,-1607.4086501039883,2917.6424851382003,16661.56341427968,-369.209438118013,4175.82755237874,10514.995529411135,-1668.9741820524766,2668.3182441205413,16681.70954277104,-372.2799549088419,4197.437363538493,10528.576377507165,-1640.4484457829626,2906.359363361271,16735.870310434762,-379.22420071271455,4184.067405053203,10532.873196638702,-1639.5732018323179,2958.085307249574,16663.84842133999,-377.89692630764625,4175.125823907937,10532.1969801977
776.0,11748.0,15812.0,5.0,2728.0,11219.0,755.7597279276323,11750.108948426065,15860.515802140759,-2.0719136469724964,2721.255009280585,11225.814240170135,543.8221946586566,11798.273352529344,15846.869541865724,2.432645507171372,2739.0909731240536,11217.958529699677,874.9220921143692,11796.154442754067,15861.616961330883,10.091350282635664,2720.10809714225,11229.722076428241,932.374602287171,11826.377002437093,16011.892608274362,10.335119661572545,2719.6948290542523,11234.445927876808,858.5397786622141,11748.296295333312,15737.160905108403,8.161502712281592,2731.3507361512293,11228.351222174573,577.6750998877636,11774.212079079234,15764.186640868531,-8.948785145038018,2716.642883222004,11207.328639460215,868.6876354115396,11717.903876088383,15922.273379354097,27.7926905795394,2726.6728863624226,11220.155535833977,822.5342399240524,11696.930267232558,15669.67084449704,7.861681921864456,2735.0397536861883,11234.498087444512,764.750167874484,11975.763575680006,15777.963241416845,4.604001452912295,2733.822226441304,11214.753143456679,955.3025645112759,11832.572444355501,15708.969891401344,3.129801472615116,2715.6935661864095,11198.810507262806,640.144525533917,11687.847714154004,15895.912178185803,11.090332815894826,2732.919859107379,11222.044913768512
-356.0,5456.0,18640.0,2113.0,-653.0,-1340.0,-282.4822219999118,5391.895694342112,18448.83248368221,2106.4241386638214,-640.6869802068818,-1320.5908487296615,-423.6964084662717,5328.135700815314,18646.367768578453,2123.545162505589,-650.7703155153797,-1333.431051949813,-371.77408913570594,5446.339568965519,18553.50019729676,2112.0880155060854,-655.7503686256565,-1351.8182604677952,-444.29875272296056,5426.87416132962,18603.229364377203,2112.013649732576,-653.1126114934926,-1342.0732053096535,-294.50023410271416,5245.820792702469,18626.395426519462,2107.039757492426,-664.6702650502651,-1347.5064373483956,-346.5539127693745,5468.736113810228,18519.264394545964,2110.528727310136,-664.0374286468261,-1332.7403922794251,-347.7497592001839,5395.627573258203,18620.49541844651,2107.289154400796,-667.332450026904,-1342.0199294199099,-282.67895969310956,5316.2605214733885,18524.470096764213,2111.8231966872713,-616.9191640828426,-1333.3254756036695,-429.93305935794547,5572.009627844368,18613.52520800104,2110.827604678467,-665.5630096213289,-1336.4286057780853,-381.4308939964897,5474.938447436342,18647.311635686438,2111.8313359649665,-631.9532655914599,-1334.2039357077788,-435.1420943625299,5451.3513701000375,18705.51486272356,2118.463457180318,-655.9383149461817,-1350.6169429008087
-1900.0,5728.0,14792.0,4960.0,-3847.0,-13158.0,-2053.8986469302563,5694.6540539371745,14801.077117956402,4955.842097181867,-3869.3727861514794,-13153.840718355123,-1727.619561205385,5680.377493616239,14775.252828066628,4958.170986582027,-3843.7292597917035,-13147.4552461599,-1827.4402760312632,5545.112418154271,14869.107740732188,4951.914995196939,-3859.894570831089,-13146.2803052239,-1820.1002430366375,5829.1202801438,14863.150355990723,4942.011965274796,-3833.338257607765,-13165.16898893943,-1938.3420872530974,5602.532065475565,14820.080323831424,4951.329127964035,-3834.344938724206,-13162.471169438983,-1940.7205206997548,5570.642236576957,14840.110909694109,4957.581388927094,-3840.301994142025,-13147.593950843873,-2144.9976764653434,5884.794814391922,14769.38712855539,4956.9036805834085,-3842.9524632440666,-13156.43270543273,-1989.6712240575105,5694.769604585901,14847.678006580742,4959.667540689134,-3846.0661595964984,-13155.5597915439,-2013.3417762944355,5838.947770869447,14680.893687360247,4959.631586872387,-3847.104349446184,-13146.963465396897,-1896.469599821777,5740.942392717776,14712.637872658504,4979.454517966881,-3868.84934824587,-13161.918669350545,-1666.8676480510512,5740.8410036045525,14744.47194788153,4945.734399733657,-3829.9636140683547,-13167.83055740043
-2028.0,4252.0,16684.0,5924.0,-2706.0,-21096.0,-2079.4376915374833,4225.070549189202,16665.940860700794,5921.512567109485,-2716.875055525358,-21093.014311898067,-2156.629345574612,4192.3478716421,16556.040807650308,5924.965288957748,-2706.7502310619716,-21091.846875085757,-1902.5712685824187,4289.957811730953,16519.487052943325,5916.329653433834,-2686.0387214294333,-21111.455171893904,-1959.0304148916418,4213.360153604073,16677.223599353812,5931.088971809777,-2705.2299987711294,-21096.816962734392,-2029.0178442489687,4314.561419348678,16577.76848267829,5908.533430856822,-2721.4935642933497,-21092.316089679596,-2010.3770554113894,4407.379988864089,16616.739147746917,5909.654197386753,-2702.2549606635544,-21085.807916881335,-2058.2151797358106,4296.125069152607,16710.162126142506,5902.266200313225,-2705.5683089725944,-21089.32852284252,-2022.0823109046107,4151.954705275832,16690.84513190099,5920.564738415116,-2707.384330964315,-21096.405106271697,-1949.7608690594757,4340.244746488167,16778.446488237678,5918.834010721309,-2710.7412092555937,-21116.98315555217,-2208.6266994431544,4393.799496103172,16651.68280250704,5926.454249928155,-2705.4640773514648,-21078.758488556516,-1937.1298687034644,4251.302045240564,16691.79079508357,5917.95739554173,-2704.2269581619075,-21104.494929869805
2256.0,940.0,17772.0,4816.0,16.0,-9841.0,2280.5450191753994,773.9292700274776,17756.932388904104,4800.991910215558,-2.7538161415602254,-9839.237314122996,2188.4760170919435,796.2505026884784,17831.066533167374,4820.072338964175,-2.779766921053632,-9829.654054761622,2269.9342048242715,805.2692119240606,17807.773044772446,4808.023215125304,10.989721797983066,-9837.62536668703,2238.5586425817614,869.9862229554901,17734.860767452545,4822.305446118134,14.284252796992586,-9837.601760128535,2304.8184990671757,973.8103273851787,17799.371411946275,4805.7473333216385,26.63870554129771,-9869.164103268924,2208.4244945701407,780.1104038646752,17795.017858179544,4840.283400487462,11.353264301652068,-9856.526954301633,2367.58071049665,912.5451499381564,17804.504912971603,4816.991869913912,20.482612905676408,-9845.733789802069,2413.496094399218,1130.366993958148,17645.059507525217,4838.649548478036,28.74855805181745,-9829.300074873707,2228.7005947013445,830.6369793086852,17685.938690498475,4833.779863596696,17.149972803997546,-9844.265323218144,2340.3845673506353,1027.566877868483,17710.34860954915,4830.671050698938,18.143084625316966,-9826.73810160611,2439.787917666647,905.8979234516181,17792.6720651888,4823.78546967466,32.2563590001975,-9836.874479809998
-3308.0,-10908.0,18632.0,2039.0,2556.0,8534.0,-3432.6649870743263,-11017.539783266959,18620.107900615123,2032.432784917702,2554.143726573417,8528.293743914135,-3435.7051339723785,-10947.820067256262,18647.157442091586,2041.5150082867704,2543.1239211365573,8525.982149877209,-3344.717739349315,-10910.399770868138,18676.734998743086,2037.9851626951693,2542.3967857475127,8523.664018560392,-3492.982331932344,-10796.580051324936,18560.06179891994,2031.6318213293855,2547.4366422665157,8520.334524543036,-3375.809232378654,-11000.168525133415,18657.12776655362,2044.2968985794137,2566.736476197801,8539.712130497448,-3283.495043663611,-11020.074987634702,18482.000867835814,2047.8605926312243,2546.5369653279677,8527.820095290324,-3342.157169068068,-10901.976036230752,18933.061623465055,2049.4929467969,2546.429845956401,8541.202347430433,-3273.5168943280337,-10867.679042465415,18678.105245207884,2045.924706998318,2557.316612236986,8515.163401065938,-3404.9303345033904,-10855.853021983621,18607.54680247201,2039.2216118346678,2556.150344780193,8536.054229311054,-3367.38380799609,-10851.719819366435,18549.80730917038,2055.9078545771567,2539.40598257489,8550.44521767676,-3209.1291843718673,-10914.17441886627,18527.307509641443,2042.1978707152223,2541.2048066765997,8530.296982144027
-3180.0,-5496.0,20196.0,-3269.0,4593.0,7931.0,-3065.4472254966845,-5434.145054724384,20242.483834691724,-3258.357393446902,4579.7226373294,7938.261104446247,-3207.525067224141,-5486.392863785225,20170.715475364697,-3275.7118868881,4593.590848652461,7940.341852466538,-3085.1581078882164,-5553.743936759192,20212.07102373158,-3275.804861073657,4590.823690612024,7937.761491022415,-3206.1976796208214,-5331.7627818553665,20152.76408285594,-3283.6016898888506,4574.140645248489,7950.51576455803,-3328.6154977273577,-5553.4935788219,20209.054748651288,-3275.8915813975746,4606.057627283539,7934.127905109829,-3332.778463975306,-5533.145869433812,20211.873711385677,-3274.581285271699,4592.178725528848,7921.018841798617,-3325.7899261832144,-5305.484245557768,20027.482874938938,-3265.801082880141,4596.443615255946,7912.815288979245,-3049.957082897997,-5570.997935979996,20203.33624701823,-3276.7438164296495,4600.929170417762,7907.502122601492,-3168.6820693641066,-5597.2362879373195,20339.167514984758,-3253.8742297816107,4583.982249377916,7945.714275494486,-3136.994691722637,-5518.8554501188655,20096.37332609294,-3254.6402052684,4591.313545147154,7923.059992356396,-3347.9841595880994,-5317.276914976448,20290.031081457957,-3287.7179321305734,4584.351953501781,7935.448663916131
-1492.0,3956.0,18016.0,-2065.0,3861.0,7966.0,-1539.6292959103264,3765.656523410828,17910.903032967246,-2056.8181067213686,3852.5705445028066,7974.035615112504,-1419.9953902533853,4100.06452027688,17845.372649745896,-2056.170756219875,3845.198629411967,7967.30272878875,-1344.3593072027058,3985.9466481267327,17965.86969601275,-2045.109443397872,3866.683960590665,7964.680196267662,-1647.7410389634456,3973.5721289689245,18004.944241345638,-2063.1035309384047,3873.702359245446,7973.995067247011,-1403.6846121507097,3939.7793916591017,17901.914553503717,-2052.702270370731,3865.8032380176205,7964.301913788266,-1555.5982107554028,3764.8939047912004,17911.910858993124,-2072.208560712937,3825.6240976050613,7977.581391104506,-1495.4338700883177,4017.1918010494132,17875.39620058298,-2082.6271693718227,3854.362987207462,7950.705559347332,-1541.3515197075922,4061.9366773066868,17841.14788621901,-2076.724778886787,3867.9923373042707,7971.103332149,-1318.4948852830084,3939.75376980474,18133.233371691684,-2050.54637634926,3852.300002986366,7947.439854173815,-1611.7261714238548,3851.3119674912678,18037.380926118312,-2071.213409818895,3861.2379885940636,7977.323337123131,-1725.1286896535369,4009.0666446526075,18040.37599451394,-2073.524132079799,3876.625508463251,7968.266156081302
-2892.0,11468.0,16828.0,320.0,5075.0,11802.0,-2829.0975467517424,11504.792519694372,16783.036773338405,314.40977252232227,5097.057800102263,11800.30504076814,-2999.031305941568,11380.603425358262,16864.58019499565,313.1646396147778,5070.619749484017,11790.543394243214,-2976.1124584848035,11449.116361321743,16930.892097924443,315.42130213828364,5077.2469826428105,11808.437624689534,-2910.4386197546537,11288.316964194975,16655.9134059566,310.8175624916426,5068.894594928254,11798.273763155457,-3037.964899246084,11666.798877585676,16772.145390742968,330.6077870001474,5079.94573595204,11800.174412395243,-2832.10998104035,11524.50133815138,16814.154186549727,313.260025342409,5069.421618041505,11823.078052479044,-2858.4768475825413,11422.139206971491,16766.615283138428,305.90769514642676,5071.823996518689,11833.380879614335,-2988.260542555501,11478.008160765396,16763.76430901944,309.3465678281681,5069.123962479888,11803.897839553616,-2796.5656212061735,11400.140846802306,16841.710400876804,323.22991839877585,5071.559550483494,11797.931214159225,-2870.34312560451,11576.279720796509,16686.14463658718,319.27918367298673,5078.393388046163,11784.272373154272,-3037.269551092384,11405.385646858147,16871.993304938358,326.5533094290115,5081.026276577294,11811.261639254415
1004.0,11244.0,15600.0,390.0,2295.0,5495.0,1014.5325485537106,11322.100162728928,15640.976616097705,398.8138136775879,2317.618831918847,5499.789799742382,998.8966534634745,11133.083711485053,15514.983617232687,397.952742386869,2301.3786604637007,5499.160745827358,951.5710374776004,11197.348888034005,15636.485446007522,402.24413881007973,2297.277529260297,5504.9840971026115,1142.579852556486,11330.92803734867,15458.811090867373,396.76818837875936,2306.752882377213,5501.732763290106,962.1582097928377,11415.977224729719,15725.951401568951,392.1373313091896,2304.2502144600885,5501.121184258742,1052.295576183899,11352.860066801935,15626.604745378536,370.4432955727408,2305.1937374480285,5510.210147653813,955.0981547548698,11186.84996840081,15584.205373720915,380.0870200096867,2305.404431599949,5486.231589300812,1230.62215452879,11208.45399430457,15709.106199711992,394.38968027829685,2286.189346901179,5501.382477845418,1055.5157037472295,11423.78370713251,15684.44385642959,392.26866893486994,2307.3546249654623,5499.341034420736,1152.1774041723008,11168.711551851502,15400.37100786542,378.77017218588156,2290.8749573732357,5493.0179343594455,1124.6357526372562,11208.5046957052,15539.25135666407,387.7475660308626,2308.4283248776387,5488.095625473752
-1584.0,6128.0,16852.0,5905.0,-873.0,-11606.0,-1666.5614080568491,6017.551491991411,17131.58785490667,5895.108574443259,-877.0699184970608,-11616.427447368702,-1650.5201652419128,6000.649998292845,17014.33912156308,5898.21210530641,-872.6125576157233,-11604.97371149666,-1394.3763032901834,5969.467983338004,16799.902349858316,5919.768039005158,-880.4895843006893,-11593.692084340308,-1447.7663512001257,5979.932077711053,16868.69848049244,5903.641839247692,-867.4802963768032,-11610.74957859871,-1567.526015410314,6225.717651452935,16922.971106636545,5907.158457868584,-863.9172095196236,-11608.865078585904,-1566.5388713837162,6052.099948641757,16924.768538514745,5908.29914377256,-867.4399070152168,-11605.05780583167,-1624.937218470907,6097.034054377399,16700.603068917793,5898.043306428583,-853.3968363578299,-11605.557356843694,-1672.8989270137176,6341.680865085106,16972.41965349049,5906.518793045779,-896.5241860722763,-11597.627967457738,-1503.9761205075872,6075.164093000747,16735.263826964256,5902.867718708216,-868.7487903107108,-11606.651619910166,-1601.2238307230964,6106.916207588466,16978.00296608415,5917.00864967961,-885.4451495998992,-11597.201722880543,-1601.023909772204,6143.183665330594,16821.29628131014,5908.9615933427185,-858.703024447368,-11591.851702913638
-536.0,7784.0,16852.0,7343.0,-2478.0,-23356.0,-466.163406317943,7741.761627250537,17069.42149892972,7325.1901855719525,-2471.3504292904327,-23342.218384839693,-535.5407529469949,7740.068085811702,16877.672093084555,7335.989054023986,-2473.164469475855,-23354.044033424714,-575.1360470019343,7861.965806422677,16827.257087122547,7342.101308897549,-2465.016581558405,-23361.367148815,-648.1453659485809,7669.692001236823,16836.524964354227,7334.268205747821,-2483.9259541695096,-23367.66693961246,-426.1259120437746,7894.956208072408,16735.593890820754,7344.44813900965,-2470.919781810299,-23362.252445889724,-596.5140446327747,7741.206687326451,16849.40164813329,7354.442354899372,-2491.2334187223064,-23360.512604315776,-514.59450924009,7873.555665248182,16858.850143186584,7333.427607107143,-2464.7222112566506,-23359.58103011944,-396.85029609518995,7794.1285867363495,17047.25756880414,7347.560935533704,-2485.3094405137167,-23350.25112535503,-510.0962224618703,7695.741328436932,16807.022450914406,7335.339593863999,-2480.840626264166,-23356.71090934078,-498.25685210199276,7755.588728982359,16814.171128888167,7341.523408801224,-2477.0510137343867,-23345.146147810687,-561.5561987332846,7865.794642942063,16727.12460709828,7333.912157298127,-2487.826691892676,-23354.885038804354
