IMU1_AccX,IMU1_AccY,IMU1_AccZ,IMU1_GyroX,IMU1_GyroY,IMU1_GyroZ,IMU2_AccX,IMU2_AccY,IMU2_AccZ,IMU2_GyroX,IMU2_GyroY,IMU2_GyroZ,IMU3_AccX,IMU3_AccY,IMU3_AccZ,IMU3_GyroX,IMU3_GyroY,IMU3_GyroZ,IMU4_AccX,IMU4_AccY,IMU4_AccZ,IMU4_GyroX,IMU4_GyroY,IMU4_GyroZ,IMU5_AccX,IMU5_AccY,IMU5_AccZ,IMU5_GyroX,IMU5_GyroY,IMU5_GyroZ,IMU6_AccX,IMU6_AccY,IMU6_AccZ,IMU6_GyroX,IMU6_GyroY,IMU6_GyroZ,IMU7_AccX,IMU7_AccY,IMU7_AccZ,IMU7_GyroX,IMU7_GyroY,IMU7_GyroZ,IMU8_AccX,IMU8_AccY,IMU8_AccZ,IMU8_GyroX,IMU8_GyroY,IMU8_GyroZ,IMU9_AccX,IMU9_AccY,IMU9_AccZ,IMU9_GyroX,IMU9_GyroY,IMU9_GyroZ,IMU10_AccX,IMU10_AccY,IMU10_AccZ,IMU10_GyroX,IMU10_GyroY,IMU10_GyroZ,IMU11_AccX,IMU11_AccY,IMU11_AccZ,IMU11_GyroX,IMU11_GyroY,IMU11_GyroZ,IMU12_AccX,IMU12_AccY,IMU12_AccZ,IMU12_GyroX,IMU12_GyroY,IMU12_GyroZ
-3576.0,1380.0,16532.0,1751.0,1275.0,274.0,-3767.3352461622335,1446.518919798762,16388.395306725186,1753.5506024293345,1280.324472366901,283.8085396160691,-3463.8091385064004,1317.1739025588292,16536.655587645557,1746.7065242561455,1279.160612786631,271.79429968974193,-3509.794084031282,1336.5996400725478,16398.696228125074,1754.4600098453936,1261.2030994587278,269.5302215950528,-3493.8287970076703,1234.437086400309,16572.519028487695,1729.803396910158,1267.6432491416992,281.17272039001193,-3770.7641289804446,1325.757877107002,16500.471430746606,1760.9121093029532,1280.7689926730175,285.4355094677111,-3474.2374671298057,1496.058406878819,16549.689001107206,1753.1533075494783,1274.5771032401253,273.8028378910723,-3563.785942614687,1446.7461964403628,16514.523167366497,1736.5171660800984,1279.7980215831462,287.35838582296185,-3546.856902615888,1502.2216931874593,16419.888345629905,1748.4839303560125,1266.6756721792738,283.36589385632544,-3424.7452638567493,1464.4192591471367,16471.030418098722,1760.3746544414469,1277.9963653394811,276.64211961855483,-3719.592029760328,1477.3320190386876,16695.19009209664,1735.7989189453313,1281.1695060824084,247.96740249696356,-3760.182348101474,1216.8104159649263,16498.444998654806,1758.4485277913298,1266.5486400790119,286.83608849570703
-3600.0,1344.0,16644.0,1778.0,1237.0,319.0,-3670.5004757151532,1245.7670592508139,16753.02808470742,1769.763722910786,1237.7322846901682,302.5470924375535,-3623.0533429737684,1346.6484158158992,16584.863495129543,1783.103962944008,1233.265667199794,321.7922893786113,-3565.992894955434,1313.998924070128,16647.071587277827,1792.223880714567,1229.3424284915259,315.3105976802572,-3647.1665684499303,1264.1807246202702,16554.848514733323,1774.2224140099468,1247.2220158571565,333.28778098942263,-3685.083377068448,1244.5622237073608,16612.996562377877,1776.286259674365,1232.2509488089215,316.0054935632331,-3381.0665966417,1304.7854054726772,16682.42779941174,1782.155211963312,1250.217307795037,301.9309846728047,-3616.480031081643,1354.7318975839826,16760.502428784323,1795.4608446069697,1233.368534737203,320.4902238701734,-3577.9012382901806,1429.7667782060284,16757.992034202154,1771.9748293269788,1251.343789886108,310.4384616807239,-3509.58333745342,1227.9046970523907,16615.729187719284,1785.7790157361787,1219.1886604273277,306.17403339127344,-3519.558614103795,1362.6864354222052,16801.26999772726,1768.4270499494594,1233.967695862389,326.2696318470066,-3564.680526613018,1416.6573673398766,16611.58730878749,1775.0412533658896,1228.8874126360852,313.01346802569265
-3644.0,1360.0,16672.0,1732.0,1259.0,285.0,-3677.6047012759645,1414.811240583909,16648.496640650807,1734.5977042790307,1254.4173108781172,291.17494952195705,-3712.3801011454975,1365.9884591614446,16717.627149435244,1719.0157010958676,1248.5395963930432,278.419532118808,-3711.7361922301748,1213.9931671278562,16595.699757446586,1743.865907030605,1260.6030386720254,284.67662017036724,-3788.6808478976027,1382.408502505379,16643.127348155558,1732.1736273785355,1252.5584920009792,266.5525198515785,-3523.426101918231,1236.6881142735565,16778.33303502399,1722.8725630171825,1276.437202270092,283.22995792960745,-3601.689314189109,1430.5721794542449,16538.668803670033,1741.141978148959,1256.6140351146537,258.81785895707736,-3641.8872537677407,1491.5726750894776,16668.20647102913,1733.866666956578,1260.2698835331607,306.91854269906185,-3691.494902437598,1122.0020342177818,16877.997635387306,1744.8426647096965,1252.0121238673933,295.405567375793,-3625.2047223391323,1447.2891965991957,16533.199208991286,1728.2829571367538,1248.6359482312107,284.0177449129967,-3563.389473781298,1328.0252293789276,16553.451231070067,1746.818762469482,1258.7606275097892,283.1654660395234,-3795.1521774476455,1381.7296442355562,16738.310306544437,1742.24390114889,1251.3602957039939,284.7128318591916
-3616.0,1408.0,16556.0,1754.0,1283.0,280.0,-3617.3963133675597,1363.6751919474502,16572.11234258334,1735.302248876402,1281.0727772678938,288.7163903261686,-3674.0055557025375,1394.4026740895972,16678.795500313747,1743.9946778171109,1276.2224503096847,296.8979882284464,-3650.7990059114973,1457.011568493607,16591.290257916302,1734.7415792425757,1286.375492390829,290.4965984236597,-3613.0944184145974,1265.5685285710679,16601.055853109898,1776.7264758889633,1304.0073572540875,304.82245035769444,-3585.3590313700956,1440.179214593649,16651.20574914145,1757.3392558967887,1281.4668281736092,285.68176460525655,-3654.5026750738407,1336.3377556916316,16505.97600601782,1765.1887415797194,1276.025627428759,279.2976737943646,-3804.7742883650717,1495.1046795206926,16718.64503634601,1755.2814082188138,1290.7601563452856,273.68383271873665,-3696.639889113581,1487.8536087895711,16452.912012323915,1753.5056856991225,1294.1368394366925,266.00408261506976,-3657.5338296021055,1292.3067621015575,16638.150045207847,1753.0113369414328,1284.1124715820142,288.3625120044295,-3641.5803189374096,1553.4442680970392,16518.25363491943,1748.1908729988033,1285.2400764536449,293.0620846008958,-3650.3130760383146,1490.4616860533292,16519.262185432195,1760.5427073439325,1286.5052847541856,293.57024225352995
-3596.0,1348.0,16608.0,1741.0,1279.0,303.0,-3606.9434679183432,1477.7738434093362,16547.845410701066,1721.4471073437899,1260.2599639682041,305.0954433786778,-3531.4779523334682,1379.73185615811,16596.07607582913,1729.685117574522,1277.9819508429018,330.60224089627656,-3702.5131684968715,1301.3039744646985,16675.34128679143,1738.4777140121219,1283.0966227798397,313.65052653349886,-3720.0838645752583,1239.2762582579328,16722.578919035353,1732.1252196696616,1268.6429928863954,297.83590987551753,-3433.4265393871715,1366.196692433257,16671.850122494394,1735.7511653032839,1281.971146812963,309.82860725300424,-3708.012038174788,1192.8454309813123,16587.676294504497,1730.7820982560715,1271.933728043254,303.5003390067702,-3528.5196926070694,1281.5608667029628,16555.630356675734,1751.156071826808,1282.7666102525611,294.88892745350284,-3777.8520921399568,1279.6344925971844,16553.131171817506,1733.5288032927963,1283.7684372481147,303.02540863411684,-3560.150736508249,1398.378473763257,16631.787342443255,1723.0038361318007,1275.315511412829,312.0140868690698,-3704.2425658535803,1445.8866192702799,16729.87817984127,1731.3070697080368,1268.718245526084,294.0229277082426,-3599.789580794939,1225.5569691669289,16633.73703461071,1747.5096067723907,1283.131895221112,316.43632116241747
-3600.0,1332.0,16584.0,1691.0,1300.0,310.0,-3674.0530447974593,1314.2387855714762,16614.010824504086,1695.4495794401898,1300.7582958018827,293.70108063160836,-3585.2774387648747,1334.5026124589426,16517.323542789953,1666.128289849957,1292.7787797741262,316.4228458478858,-3674.1703099407173,1305.1047389761966,16590.304065041928,1688.811074801655,1308.8099532279011,299.7799233605613,-3770.128356304647,1395.5960743702624,16545.910044776057,1682.1040019858226,1309.4175195756495,298.0112035105812,-3518.3968342624066,1478.9795502686372,16623.68014701254,1674.3947088640523,1301.7075036123802,294.6581395498631,-3570.8387291990816,1356.506049823409,16717.52209679916,1681.9957327559512,1301.5671027603257,308.81403753378794,-3600.044114554649,1333.0793815661925,16547.17577947684,1675.3842950041592,1298.7237161870328,322.2441284455377,-3525.387813362276,1262.3285192378999,16582.973493713875,1703.1333638555939,1304.4420530767902,291.40992418604793,-3596.4061133329637,1434.7683735062703,16604.67293335291,1691.7535565824724,1300.4915114339487,310.30947485157697,-3666.5626576815707,1421.9115213749922,16516.107074186122,1678.8652771480733,1297.9778484332146,311.33886683628117,-3537.4522384688034,1519.0429718193477,16462.701165188082,1698.9972138590012,1305.4150428641228,302.53960744678756
-3628.0,1344.0,16676.0,1744.0,1274.0,288.0,-3857.158847611237,1440.8066589068776,16710.378907949536,1761.8144677448538,1287.0168095356828,299.18032077415467,-3579.148382862514,1268.3845881063567,16601.574827857745,1741.5815105591041,1285.1195521856525,303.5131669039407,-3657.732181623245,1377.1055064295515,16588.757314919338,1711.3874078338245,1249.9452735591162,289.39958038900994,-3829.1942937558288,1152.9010537133313,16551.560877002197,1733.5945702265735,1281.7135476593621,296.381964524578,-3697.096210332529,1236.504519481352,16660.87910533491,1748.9070166220936,1287.311459002316,294.88158833145087,-3610.4288087103337,1266.0621319418626,16678.010397000144,1717.6087087452352,1277.1128564393944,296.1588279381478,-3519.725974345142,1391.3175628680044,16653.23039537761,1748.8854722622173,1281.7585117054296,280.8402432358205,-3600.2971460193876,1270.4355246193052,16744.226697368453,1745.3285114446937,1274.3035010357255,291.13618670519344,-3822.582884536802,1311.0901421108274,16725.981676495692,1752.3519281438566,1280.0480620979029,297.68693752012217,-3622.8597562198047,1349.6198616744034,16668.05209728956,1748.487770934465,1253.577992560256,284.7488374405172,-3643.7451613173935,1415.157295516575,16597.82919212835,1740.657573721413,1280.2380330925282,281.10467614622337
-3604.0,1328.0,16664.0,1734.0,1294.0,290.0,-3526.0637061120015,1131.7638618511346,16482.300956448158,1726.8657707048171,1310.7403088012697,292.0036965047132,-3620.23765623549,1428.3433101999788,16587.06051658911,1727.954376499249,1299.0086799589048,294.08135898767694,-3612.5211291486567,1324.689433268897,16621.213383708844,1743.9450761523792,1278.110228676162,298.2134054213271,-3560.253903154962,1098.3012302485072,16657.50859532875,1724.9575667364556,1285.0971260660292,290.8082083461454,-3677.378663932816,1365.0880545329135,16613.291069876628,1747.7746911790125,1285.1385252590972,277.8288042864407,-3688.5636642142363,1441.1909331516395,16504.862783624092,1735.3995015228454,1292.972158906245,289.93487069510525,-3760.8680431788785,1371.1785441919578,16674.600161598348,1742.6097110337448,1310.153322231577,278.9213331852022,-3522.8992760254887,1393.9998437066713,16631.82765703715,1719.5844091167455,1290.1021866403246,290.2732951837916,-3507.3911069218047,1194.2770927736472,16769.079385696932,1742.7072007522363,1305.198907469383,304.35571213401226,-3575.994830353861,1282.1489743600437,16507.692480293084,1734.4279438243025,1319.0926433138811,295.85195338570674,-3570.931610605008,1215.3377283921611,16781.279131156665,1734.8624360220972,1301.0716306254005,270.8730308624632
-3600.0,1372.0,16712.0,1713.0,1295.0,281.0,-3573.0089351367355,1295.5109661976032,16610.198503884112,1729.3497013509482,1307.131996626793,300.0058518481159,-3544.8770077225217,1294.06482219761,16575.14449978428,1723.0044084309768,1305.8936091937212,296.7200189710431,-3503.241792804465,1345.4677367416245,16666.969961720228,1721.3236386209637,1299.4286355784707,265.9582357178911,-3686.2370638369,1237.456593207468,16600.940755502525,1690.445225618108,1286.7682005090387,289.40469570381856,-3659.056458195011,1532.7654511934775,16747.545988699152,1709.6399953687862,1288.4863886742587,289.5325100876564,-3689.7536228235476,1515.105812636768,16583.371790228255,1706.29387375868,1307.8034826303328,284.80930020118444,-3442.360489955435,1414.9986652502494,16605.1064161431,1714.1165513160645,1311.7439249176257,287.9031124014951,-3555.00916673434,1484.3999534369027,16755.484077890545,1707.9605875060715,1278.023206131807,276.2912579496711,-3491.969623302163,1528.2027414806566,16622.79651008175,1715.93904656139,1279.4605631773384,264.7939656874635,-3598.8283822585336,1249.8297307892176,16668.14765137814,1733.3720280346627,1278.8821558870843,295.2549325133439,-3482.9286574398725,1497.5661136571255,16569.261530814525,1707.1638715247834,1295.197896271472,283.726984703088
-3672.0,1356.0,16652.0,1754.0,1293.0,310.0,-3632.459074279125,1173.3168384046178,16887.17112225313,1743.9947125933606,1290.4143806405882,315.86754215325334,-3752.6324281868083,1412.5410505114485,16660.426599145696,1753.09997642566,1287.3864617527688,327.76597117134105,-3514.4287771397853,1473.7573009419186,16755.64681239883,1758.9854296010235,1288.5557694360546,293.7522638331299,-3564.4959347753143,1481.7316401919716,16827.146546061118,1755.7811340768667,1297.413060160541,318.8555667046734,-3688.359959327925,1518.5850420951044,16628.655652851336,1760.2186995895063,1298.98536884374,325.30349234793323,-3764.828468608019,1257.0768769639546,16728.882606508047,1747.0197343669354,1295.750145626424,305.3320594769524,-3874.5152916435527,1307.15821024257,16774.77669945369,1761.9826923571593,1281.629363932443,326.940094448937,-3435.903372582807,1339.3778558243139,16770.644847817373,1747.4743567364899,1278.3655464633557,319.9323224890853,-3707.9878353956256,1266.7347467721122,16524.478143007942,1763.7803957591227,1294.275447055676,307.7669631325281,-3662.143121575169,1511.031004361086,16517.648562705097,1748.0359738680497,1286.1439889675,316.1313928054474,-3610.7412489993394,1174.6005340960842,16637.10154291543,1757.7774379632465,1278.9612742382737,311.7503321913333
-3644.0,1332.0,16852.0,1699.0,1299.0,303.0,-3774.2013226848635,1408.2892301412335,16948.60538603768,1697.527949771746,1279.6908395293547,311.4435440241955,-3549.5727537326497,1476.0507623829142,16929.139071997826,1692.543485383696,1295.589989132456,309.2427974178828,-3645.7248002973297,1363.0575845443059,16935.76628583325,1691.7590337751694,1298.8448069833598,304.87745204735836,-3626.2898620413766,1447.9159476805935,16806.631998224893,1675.3124760267945,1295.4226027366356,287.72494469698705,-3622.670153367091,1299.5559477807476,16912.865613684015,1695.0874383987107,1310.0429220252015,317.80757306005034,-3538.486160461581,1349.9233463364283,16877.357311925738,1695.7728994908734,1303.786044893628,322.51085806333174,-3418.461194024575,1381.0509613794202,17053.31659319778,1699.0090439846535,1300.7243352496855,321.49837571358876,-3613.764701243359,1275.6437085837429,17013.505260268917,1692.417531957004,1299.2863380715446,299.736898389346,-3607.5497558288953,1291.1102488608003,16747.226965026566,1689.3811878419147,1313.8538441128817,302.9998678937351,-3425.849247373885,1220.2632229105209,16743.00275313032,1681.6313193558217,1314.4399329356697,288.38402804795993,-3590.8575720516237,1418.176288024901,16934.726642901594,1698.4800855912129,1303.2040070518954,305.1957148733625
-3596.0,1360.0,16688.0,1770.0,1290.0,313.0,-3675.415894602085,1506.107743780741,16701.228570299412,1760.652071097114,1307.850185441925,311.58074710775105,-3617.5937680596935,1371.0763803934096,16653.55054267525,1774.1539955059598,1285.9233555998785,320.13518661531083,-3612.2997913844983,1263.510034357532,16727.805571587953,1768.8667098981005,1296.483073207655,313.2221031597494,-3399.0800512817113,1401.7604925642681,16698.467860484947,1780.4050399253133,1281.51688353052,316.6308914260915,-3719.4258807486626,1278.3161048553852,16676.68094124305,1777.371528362175,1290.6085767718882,313.1745362629734,-3561.0909219215487,1289.6901575534455,16700.873222681104,1782.880510065008,1297.4596552886226,313.4251567386716,-3533.4143396890604,1378.2420267229556,16773.918567995363,1783.4389149912056,1274.9535447487806,320.11156141638713,-3700.2332911391095,1236.547341535355,16553.271687177636,1753.1720745599057,1299.0874523936889,320.0908366601634,-3697.882435221896,1289.9888138898423,16719.849841711042,1761.3467385712981,1273.3024308608203,304.7159778830235,-3676.5226578935094,1429.2259263987037,16740.592560227487,1773.6296402196258,1309.4125272267802,298.5678556026432,-3672.2492474246096,1252.9122340482963,16582.16562996202,1791.754688073188,1287.2595612812584,323.3966827836514
-3644.0,1264.0,16676.0,1797.0,1262.0,292.0,-3536.9208187607915,1145.408346601051,16713.662319927822,1803.871508833715,1259.9131650197949,282.4504800092305,-3743.94512772728,1222.4903226377987,16715.35749662553,1775.4834381106168,1252.6006987224062,295.13483508791603,-3700.6862101538477,1201.9556400776974,16525.297815835012,1799.8613540164417,1254.4784390018676,288.2175106082044,-3746.853451182366,1251.761144733109,16653.324060421397,1805.0460034424486,1272.0793744019388,287.448805629626,-3644.517912599422,1309.6579699494555,16691.039705703588,1789.9684568122302,1270.5458336205713,286.2990312689662,-3773.909867312694,1253.4238420883355,16864.479746333283,1797.263984171318,1257.9741042007151,299.3920989609924,-3663.0194362040243,1273.5896401269533,16605.483395581196,1789.6642504728122,1277.0917237910671,302.77152869689326,-3755.8202151094647,1083.9875747991732,16721.195932499795,1792.1572518652854,1253.739952451615,285.7803541525981,-3567.3137914034996,1253.068546217034,16579.478922164355,1780.0974316421018,1258.2512410508928,302.233863712023,-3720.9077637374244,1201.8725392788376,16655.88973433212,1801.2593269513825,1257.8923266215706,300.8975137794953,-3741.4469355420315,1216.8520403168234,16641.901512562545,1808.7205060668787,1268.4752462134575,279.5453682049103
-3636.0,1324.0,16676.0,1802.0,1268.0,329.0,-3711.248189840745,1226.4468616567135,16693.392359989357,1829.141186260624,1270.8566143097107,321.84778260467226,-3665.7687571711676,1324.5585723352995,16715.362479060183,1812.9084767283216,1260.9836341899343,326.72303175281075,-3750.045629666799,1448.1750643213973,16577.15240829966,1816.0114324884605,1281.5408649679039,325.9084472437714,-3766.4937695033354,1329.1263600554241,16874.647766331844,1810.6493833735906,1276.084866537149,334.09307763736047,-3641.665149895078,1345.954797624184,16581.40019722849,1790.1918733133184,1265.6722939369592,324.30560613524375,-3844.5336390803864,1325.561071859981,16676.864325915853,1810.6982240978018,1294.3404986877565,315.67693013954266,-3650.24784842442,1420.093630504614,16531.97115165162,1795.8020627488872,1281.9995306858523,326.2748076687851,-3533.651257350162,1251.2139938961855,16743.805158217,1808.2732713056394,1261.67470345141,317.4907114814635,-3862.752228521627,1524.228084558591,16735.436923522368,1793.15952981737,1283.4159292396857,311.10814478436606,-3634.655988324907,1267.8406037406783,16438.351505243892,1802.8593018550478,1264.3644125018848,357.96049986131976,-3710.4735950650565,1262.240447925892,16917.268721270546,1808.1716941338088,1262.7354307621638,319.5877372974897
-3592.0,1264.0,16532.0,1801.0,1241.0,302.0,-3470.3392814570716,1242.8266977475928,16467.96671969045,1792.0233368612353,1233.291145260609,302.794029530137,-3595.386177598941,1308.2415629032218,16450.787238020253,1790.028228042507,1243.7654075063638,295.17218488693567,-3472.536557355494,1253.6011981626552,16725.817163439322,1805.8838150786012,1235.5139333546722,289.554114031128,-3498.5659107733077,1216.7602430564386,16745.43510721809,1793.9834821177635,1239.9476257752474,294.5049545159648,-3623.776561876412,1391.9414896720784,16553.151490144315,1806.067088664979,1223.0186897619587,313.65329404848376,-3634.392014108373,1419.9817978911062,16469.703759460743,1798.417335893374,1257.8697904240175,301.1770726486728,-3671.396609945216,1295.3673980929066,16586.634921458244,1780.2111539270916,1233.3494792061315,295.25309512561915,-3820.8557011056364,1330.4915554599302,16743.967991168192,1798.3274276541179,1256.9643737262493,289.37165369251403,-3560.3469318839,1107.752757803595,16525.82922156275,1792.3991810655825,1233.209494702627,297.590628055777,-3531.776359780201,1233.951098607915,16566.544384573215,1791.6907868305545,1253.4942598006442,291.1345488545799,-3611.7918519891196,1153.2959644529658,16484.230896233712,1798.870643180004,1251.8074370064023,294.29412466722766
-3680.0,1324.0,16600.0,1821.0,1254.0,290.0,-3722.0290610418665,1425.9941230194759,16471.06701356855,1808.7434856560044,1257.7068750891924,293.1339449276838,-3688.0274182559706,1374.973387330254,16599.79999235051,1821.267347740765,1243.5655705866175,292.8606278168392,-3740.718619818106,1449.3576232042913,16605.457330462556,1829.7131298191696,1258.6425729175635,286.17381775449746,-3735.958809639292,1504.3087513333253,16619.14730981283,1801.4887934385838,1260.5156518150643,289.0294536810366,-3692.3943794502175,1345.4620732625235,16629.446225039876,1824.8269832193885,1245.16664139628,275.2080978686254,-3627.290608270251,1424.2420483881288,16798.089001171986,1835.0317183143736,1252.4178538895405,300.36545831259235,-3766.5197258587555,1538.5198263890497,16412.029506825707,1823.2974445950704,1246.2670500726003,290.3629437411619,-3735.4348480358453,1226.4082390032386,16468.43467152686,1822.1154546427872,1245.174671856148,272.94068946641954,-3616.3296208844845,1249.7347010951337,16689.452389694994,1819.2925527427212,1246.3692358684987,296.57103389976044,-3592.555341668274,1393.271847605342,16553.330359030886,1813.3286138264743,1250.0284299233754,309.8310969997437,-3634.4643414520397,1276.0227823396028,16706.13453091366,1826.97219375548,1255.9505218695815,293.1455734832844
-3584.0,1368.0,16420.0,1776.0,1317.0,309.0,-3606.386156478181,1534.4265043859114,16457.761131631927,1783.5071123481614,1320.9397937649942,313.1390865413764,-3524.454866551384,1293.3303925650132,16472.097811069612,1796.2751425158046,1313.8671744703956,305.53611529703903,-3527.226918748411,1427.7026696356295,16493.27334394035,1769.2675415881288,1313.0391172109803,310.28937263225,-3547.3619131739956,1535.3038581227001,16421.221950452633,1769.3955115895478,1315.3129005799524,291.0239113909743,-3608.265036082739,1292.0804032012666,16195.720721186299,1780.4706036689247,1331.4861158229157,318.70009076628213,-3535.5238171564065,1476.456562347348,16346.108940873719,1766.2905440486124,1317.9149491057985,293.178856558748,-3454.7179733431235,1556.00053410373,16457.25466268586,1790.0474571990508,1317.0089163080388,317.09923929060193,-3601.8566566929117,1474.6770260602354,16551.496118144027,1770.2470280503053,1304.2222228780165,313.0062947850254,-3570.918019365672,1192.1839936659246,16465.133552067255,1774.1653754801894,1319.8382802971516,310.80030099500937,-3565.2325007425916,1395.8414409397142,16237.931855540815,1775.7171408985496,1309.90170760037,297.15275628461137,-3484.078180301939,1305.0672312844893,16531.517868624283,1796.1984354601714,1300.3254194198314,321.37821310151764
-3540.0,1416.0,16420.0,1788.0,1285.0,306.0,-3480.2906923982287,1561.2033573040671,16499.428399163528,1790.8990908446594,1289.4066275975729,295.4957189100333,-3410.956141656076,1369.573214009561,16287.221293520182,1793.0475953971522,1294.3476580629656,316.66813567210886,-3657.4777856916267,1626.4336853951313,16653.407296740857,1772.381886205496,1275.9431402859564,317.28805882069554,-3572.040894668127,1430.8740044991855,16364.908842657389,1788.4849115971872,1267.4196977200336,296.1365910602015,-3628.300518131292,1277.8078276585645,16455.63200144928,1793.3057149647364,1295.14539158467,295.22091893240554,-3690.3644549393944,1311.6036620608666,16662.98368073997,1787.9385686983526,1301.4295199955789,302.4568824303005,-3561.114532318583,1264.465081290402,16653.741008628676,1793.7018169734838,1279.8525369284748,303.7942335254797,-3446.148216595688,1456.5279222310805,16540.34658541945,1778.511628536503,1289.6056163766887,308.6786236949831,-3357.4635033385985,1522.4465052591315,16350.595599654329,1779.8739715153358,1297.7799668059524,316.39150621163634,-3616.409101629076,1698.0424447652142,16384.34695037645,1765.3671080229108,1270.5199727996344,306.3194275919653,-3502.3773848370865,1435.633586411768,16707.85942229263,1797.4520662636974,1287.5722254615189,289.96988463344775
-3548.0,1372.0,16600.0,1839.0,1254.0,290.0,-3410.036297144636,1292.846790966688,16518.79338049617,1844.0496694156386,1252.8707289539207,303.32929683726854,-3608.853535291856,1455.2374437391425,16579.865479416538,1825.966189557686,1252.6338671719204,299.40608402415126,-3499.636346463395,1336.0622463599175,16499.780206331077,1846.4092220227599,1257.3301536723277,277.10478057323854,-3697.486568690521,1314.7677535658506,16693.19280726633,1846.2438059699055,1258.9379099058972,299.1798351647553,-3371.005204429325,1266.7389017843843,16696.829153327366,1831.5112446772007,1246.4311607110333,308.2903377722837,-3588.3183741844964,1499.1128436263216,16782.047990040304,1840.3926635695886,1263.5513140957712,295.85384530775633,-3425.7039189189363,1303.0133325180518,16654.036389451947,1852.5712168818757,1252.7752593344565,286.21201791588277,-3491.1500662386693,1336.6438695040033,16439.453473332047,1837.2489600434235,1263.6704530031416,295.4698113664805,-3508.818073422452,1418.8713923731739,16557.958131237334,1847.8483354910134,1249.0096040568308,261.98273887400524,-3479.461174452212,1481.4022401169225,16616.02417526189,1844.7882384604566,1253.706938770944,277.9523300876902,-3477.49833583879,1424.705221722599,16621.66473114983,1841.178488798654,1258.127473334663,286.93900827606666
-3528.0,1392.0,16584.0,1929.0,1201.0,302.0,-3402.3773001128193,1385.8145347730117,16542.222855317134,1921.7486680643515,1207.758918525227,292.81579641469136,-3680.996758764081,1482.417307792222,16430.871133906116,1940.9428573221592,1208.1834785043914,321.45005748248485,-3447.5572749489456,1478.952324030204,16572.59292759653,1927.0853123063043,1195.4074914561925,307.6400995155975,-3326.3445073520775,1206.9197264256472,16777.106426003917,1916.2617247217452,1198.960684416164,311.29158563291844,-3481.540951584488,1332.2532871184085,16659.892786156368,1903.637300629572,1185.1842923932563,292.2066180616416,-3626.5790300256444,1422.8461841140283,16500.550297895796,1927.024027661078,1186.4835162249428,303.4922819266949,-3534.95575318996,1531.9846492537158,16668.050119262713,1927.3860473932084,1200.6979941009035,292.63285641519826,-3518.9512625826696,1343.2406330012816,16678.855509446323,1944.1953621361715,1199.8936409811713,297.54703307529644,-3644.7743762302193,1302.5966645341978,16742.733131125373,1941.4075487678501,1178.208069639154,300.42206730010196,-3638.4895634890977,1395.3561558343183,16601.112934720313,1941.6999074083708,1209.473374879668,305.9408746812134,-3450.979402779796,1472.6323531111163,16600.524478057796,1927.965522605502,1226.1712669901303,291.98612921374627
-3680.0,1340.0,16708.0,1858.0,1227.0,299.0,-3766.809510898495,1498.5256244310974,16732.72811671435,1848.4224749474151,1208.3337736672759,291.3464474848348,-3752.649623007964,1423.104666144869,16749.86743344745,1873.295487247799,1240.6864897315454,294.93625944533966,-3702.296777233028,1302.3078587928173,16568.6585099128,1866.4913381815963,1225.504347380409,277.1464057163168,-3503.276855305942,1269.7012533502261,16660.593267118056,1849.5855534209347,1215.2543873049246,283.9443253308502,-3793.9473259848123,1360.004152855538,16684.488667591475,1850.1632523531189,1234.4256254729005,293.86882891735934,-3369.41930557058,1441.1953513507747,16865.70411897448,1860.1460985347182,1216.9814927946584,309.68501768312973,-3650.8123174559296,1212.9911572208698,16748.00416953759,1854.5380079781191,1221.1858905649756,307.4018170941723,-3495.0113169070323,1471.1315810928495,16612.102850963234,1849.1270319247974,1223.8802141910735,273.0191293256398,-3710.7152080596247,1293.0827567811657,16691.96614858567,1865.0502511310262,1225.14378861553,290.2153267714405,-3763.0637586623598,1231.5745616466822,16769.944627753288,1845.3930081500496,1232.7018579629644,278.19976522716365,-3662.5734927973476,1594.9459797387226,16783.993997277532,1856.3980297845162,1234.792668218469,305.56579547419
-3656.0,1372.0,16736.0,1786.0,1254.0,295.0,-3777.7179901749064,1427.8361149693803,16779.239553051386,1783.2833250886426,1245.2575240237234,289.3978662804106,-3590.535771258758,1324.7900163074833,16761.37320539817,1775.8365430275308,1241.36416666996,298.45184082773073,-3750.3937341024675,1445.841744320524,16669.304383034483,1785.0741620771882,1258.8744991335795,288.2755091484327,-3699.6640390067737,1308.6716990438715,16864.141636901615,1785.408527825166,1242.3574197246805,298.9901138175413,-3464.3450230061644,1466.1469383910844,16760.503944397402,1781.8597309036466,1245.070365225788,276.52234493065106,-3524.3916406154676,1488.280372950076,16669.50792168901,1781.0325250837152,1256.3928129034643,305.2754853789852,-3481.881137178317,1365.9325678319726,16819.521986610634,1770.7738696582223,1257.237243362557,287.38717256460404,-3600.325775010342,1396.1496376452799,16657.926322306917,1785.0929514185327,1247.709415725579,300.1047393549888,-3647.2921021086368,1339.839988731472,16900.283974554284,1801.1622762190793,1232.6128042949722,290.2457163773121,-3825.025604275211,1444.9027870175014,16809.447842153662,1796.505461943619,1264.8291613410724,301.4855026224588,-3564.6676920141444,1642.9600614411145,16830.09676483792,1780.4569977628323,1256.4424660085517,288.085558340919
-3548.0,1316.0,16620.0,1705.0,1308.0,305.0,-3428.7728644220533,1234.5311339887776,16521.811860784394,1690.9846268460317,1294.146278012523,281.58342729135677,-3568.9136834794585,1229.8133910916786,16674.41547794682,1689.501933702882,1308.5100081807605,316.9159359545662,-3444.483698793608,1396.4717208314078,16601.501596758608,1704.0493353698885,1318.198736080258,298.51675555560973,-3551.3583764415803,1420.470543169291,16633.81525683105,1702.8814173976305,1289.8587440863907,301.96069278647985,-3408.137139669006,1433.5646904849366,16504.60071336788,1708.8339657056154,1317.3166279810814,319.0759282719186,-3485.717914961988,1412.4221642395103,16613.358031410316,1699.861138984775,1315.3941831846253,293.97980304819197,-3711.8880846763664,1174.8400956117232,16540.120593760716,1720.5057814127535,1302.6601559446433,306.22361962990914,-3617.250807567548,1382.9042389474107,16737.434496677735,1691.857980397488,1314.905705736628,315.0762880501216,-3500.8180679199954,1380.2903327754548,16616.467527270197,1710.1293729535898,1310.476847476223,294.3351873776512,-3661.813336330868,1399.960186495458,16597.338193615215,1698.449204645524,1298.6366616217124,298.07046933888756,-3362.855386298828,1146.0225134813109,16697.187579957772,1709.5738567638684,1307.4585195849602,316.9758455002139
-3552.0,1324.0,16684.0,1722.0,1330.0,290.0,-3364.8097782827213,1444.7058619584855,16719.113044936264,1752.8792756779567,1314.2252286299713,285.9218190019351,-3534.8023765689745,1329.3857495253728,16571.826348305014,1725.193652020675,1332.3899559771155,284.34763946008076,-3567.301124969919,1398.0655065108729,16673.890766082546,1733.475066176409,1329.815384808845,283.9213572606912,-3548.6475660562614,1350.600812452413,16781.05642459923,1719.2939896116434,1309.6845064590707,274.5156249614868,-3604.0019042939334,1364.7314674072338,16555.463230819892,1718.8105907602057,1319.9048130810254,287.93266174877124,-3576.3761782351503,1298.399104436567,16631.14380443832,1716.9629648761252,1313.190840300685,281.7905420026094,-3486.6324052801483,1199.1784429198772,16550.250559179796,1743.440435357687,1322.6344904464986,284.6817470657127,-3622.6774076748097,1259.5369288308445,16764.747808260574,1736.8226108123536,1341.5991787311752,294.70994314639734,-3625.4084507034772,1418.1381261124334,16892.418665627123,1703.039758390884,1340.199765556885,291.90139909207676,-3389.137017167314,1277.1423757634946,16660.175991341534,1721.3717812677141,1321.2864085030615,286.4028926720669,-3597.709576560318,1334.0380278175974,16802.136783530936,1739.3985452823931,1311.2863038803166,302.0717889764209
-3620.0,1328.0,16664.0,1756.0,1296.0,321.0,-3620.492024567767,1324.6245900964384,16678.200798548904,1734.0862183110373,1293.7426494623535,315.92545298509674,-3673.023075999221,1334.4686912532536,16741.027310925885,1770.3674599620933,1285.086387463931,314.49124739563166,-3489.09839147547,1326.403137731989,16608.383336514682,1762.0011910408675,1302.982065012495,312.18704574913323,-3503.026761844869,1372.3322454980485,16657.279230390603,1752.7218539100618,1296.576691906072,302.2849200756205,-3751.7234246477697,1381.0692762509932,16799.77778828658,1750.396411226468,1302.6320023635083,333.7063196717983,-3587.2605584639464,1391.7678757889403,16628.445717901657,1751.7989032589442,1290.9839326290883,325.6231278073992,-3910.7826317990784,1258.9282689427375,16661.366635338607,1759.532890076041,1297.709823693016,300.62978815930427,-3722.630294399882,1302.704520995105,16724.56637486734,1751.4813010345574,1308.589571802292,303.8193771310976,-3650.7444950337103,1379.9398894107119,16644.986021182096,1736.243655629432,1283.3524507700201,324.2494586302385,-3735.93981864046,1427.1351073996327,16569.127210627314,1727.889910489294,1300.1262692159426,329.23319445761683,-3581.795402556692,1475.1496872172959,16692.498683631897,1768.2065809065575,1271.3225220646607,321.8070625959088
-3604.0,1344.0,16648.0,1764.0,1273.0,360.0,-3737.0228307329553,1209.497552588637,16590.844287395597,1760.0177981508027,1269.8858356968472,347.5258420011766,-3448.9408115838864,1109.5931464622095,16507.7678302103,1751.871094594358,1259.5804532248144,366.619952504322,-3720.4411231629733,1260.22538286778,16538.299531058095,1760.6637662585113,1268.5020163294641,365.23696237950264,-3705.5068304763136,1351.0166464948952,16690.164685174037,1757.2125264199651,1274.4308651701747,349.46979158852366,-3635.7895110121117,1433.7763993996457,16553.86282243954,1760.6508103914134,1281.0944528205853,365.80288013114074,-3363.0737557731695,1239.9196332950605,16909.295303478513,1760.5106596832986,1259.2157685466439,364.7971580845531,-3503.0963622398694,1443.899106828364,16815.691099873893,1765.2264882461443,1289.3527442886643,386.43471390533165,-3633.984341685604,1396.1211348240308,16580.942052853345,1759.3290364504849,1274.887952953833,375.2900084062641,-3453.7635983926675,1498.833930898203,16686.25399053443,1751.9865497969745,1276.87832189381,358.2618835523757,-3493.1255861850022,1353.5446499632694,16667.266518652334,1762.2597509369477,1279.6678215717027,365.8531216619396,-3582.7760973486397,1466.2840348614236,16522.89195874774,1764.5244320629004,1266.855807123833,351.42164361138
-3620.0,1396.0,16668.0,1772.0,1278.0,327.0,-3545.1436940928184,1379.8387584635236,16650.215300561857,1770.9644429559426,1293.9329315669015,317.59664957112255,-3651.4587271949035,1319.3424846823689,16472.28792169388,1779.3740345570523,1285.2349748706258,316.1021884787851,-3656.922284082196,1309.1364375076669,16684.80555348417,1767.215149469029,1263.3799939269004,317.57188775644505,-3798.604224235619,1380.9356762028904,16675.435704672334,1763.2872475062236,1283.1251197735126,326.42270162309336,-3640.783403745427,1415.810571697814,16617.91871307531,1776.4605745866952,1266.6150979111098,332.3350463592817,-3576.3872648214656,1470.131086544696,16807.231199083166,1768.5916746446242,1271.7087933229143,320.8522958720631,-3442.1767214426195,1497.843021936991,16888.084163664356,1778.4305030613698,1298.9248657036426,327.12376615171735,-3626.4105247029443,1338.5393290004367,16626.81819081498,1751.8211650135745,1288.4775106658583,309.32281322423717,-3563.8492581429477,1572.254444738008,16473.22274968639,1793.4323048126914,1260.414204706846,312.30521701844685,-3649.573338646251,1339.2741215371304,16650.29203446355,1781.8342501784239,1291.8298576464633,336.7836711661278,-3678.017497520209,1332.1069393731846,16756.659480707378,1767.399438959415,1276.451438243914,339.43228066539865
-3624.0,1412.0,16592.0,1739.0,1293.0,338.0,-3696.019000295913,1233.378883458373,16598.99432188823,1730.6063621914718,1292.9761379443955,345.37721478322027,-3584.6835119990924,1557.6149164666972,16787.857494312644,1733.0947073341613,1296.6409049820452,334.7906042981945,-3782.789939863499,1375.2898141950718,16591.842293335456,1765.36829222146,1287.080455149821,334.21569786667675,-3592.9898406312695,1279.0322524157739,16593.0455247199,1730.4815182460204,1295.1353184672182,339.442087324099,-3596.154153163904,1181.6187461046777,16578.09091786614,1741.1385782880113,1279.3859613642687,338.544210370195,-3873.8500846652787,1547.503640541124,16705.94402154405,1737.2506703254696,1296.647221879404,346.24979391834347,-3678.7147560058343,1390.5133413807853,16477.11908927046,1738.7070373573413,1298.9870394354007,336.6869919583996,-3669.8344341727143,1235.588751724226,16537.01386654014,1728.1771833801756,1302.5383543342757,336.45208955776656,-3706.790654163279,1293.4792900558755,16751.795101674186,1722.4972570445398,1274.6705356496682,338.987649971012,-3594.73976939738,1391.9434554234733,16601.5804561103,1745.8407223961576,1295.0695852955946,330.11128368387836,-3775.911368488976,1333.102953842276,16362.062686073454,1749.2404500229302,1282.3839388864392,336.90931886924886
-3676.0,1388.0,16856.0,1745.0,1283.0,269.0,-3653.526354110657,1426.173697208792,16626.22454634233,1753.4162472396406,1288.9370247245429,267.33718447434944,-3541.7528628635055,1404.9515994016067,16797.47111610212,1735.0036815082688,1288.1675997630496,274.06403857304446,-3588.565057001017,1230.8772927480352,16998.898371903204,1751.7593431118448,1283.9777941480565,275.1513134751051,-3748.874989061096,1554.3200614142997,16898.658368589833,1739.5102759928752,1279.0726865041565,243.27335498177837,-3633.5765496191466,1384.8708675724768,16747.756958980903,1725.3947303327127,1280.4116524153567,254.85314188250527,-3643.747316033451,1453.1319066832157,16831.129676875084,1741.0643419794603,1276.485188287242,275.3142563492478,-3653.437643483387,1326.5714348331228,17013.89842671869,1763.5582646937748,1281.515948953954,258.47869053421545,-3698.220854390895,1356.7585541371402,16940.73756086886,1743.6738872913672,1279.4614561540795,258.4790181263988,-3630.166743910324,1395.9044686182096,16879.11340240623,1753.7736570820953,1283.9242549121127,269.3080555567281,-3674.368447664049,1435.863070787167,16943.053324401888,1742.7561788239623,1282.8039299802654,254.61871551240662,-3787.9265110587307,1243.879146237064,16819.07446994406,1758.8151603701829,1288.054410515101,279.0925727995649
-3620.0,1400.0,16688.0,1794.0,1307.0,312.0,-3688.4938135710445,1225.5822830893933,16678.667992524683,1797.8299407160696,1301.7307639310168,312.69135525929244,-3749.822883751713,1537.788436476693,16620.74141446394,1788.9274264088406,1310.886147059606,307.25605209492716,-3493.0260048353753,1306.9271542733977,16560.77443467145,1796.028802439938,1300.8079479927067,313.9177071325918,-3545.9037050302372,1402.026129824215,16664.261684495832,1790.8485446844634,1320.3598254481758,305.01309867926625,-3531.439599335445,1617.4945534952144,16898.39418578485,1803.1267849680326,1296.4336703319955,299.8404592689525,-3641.1874875613235,1160.3978933001324,16711.54064353263,1799.4641234850676,1299.692788587191,312.4286300337953,-3684.1547744524723,1276.7419885198667,16769.610252691004,1777.9379697413938,1301.8531346350842,316.67111891160175,-3639.651024616477,1439.7966168598682,16701.906495490086,1802.308204293479,1299.9534658274483,317.9223530725177,-3545.9958129376387,1560.609727241808,16624.340104006,1803.9605893719774,1303.4468664707047,298.5682688806218,-3724.8699873079036,1366.0682151986102,16851.233823074825,1792.3654910358116,1318.9423190278264,305.9107584360439,-3767.995877831444,1444.913141208613,16565.12019445045,1775.6181371221376,1303.0944448166183,314.2261084930677
-3556.0,1332.0,16552.0,1777.0,1264.0,279.0,-3428.3166763449976,1257.4640019701578,16564.657638537607,1754.2745693464958,1252.5446645464133,293.46506808369736,-3477.7162489798316,1366.4212230066266,16506.054795702406,1746.0892071347344,1265.3492749722132,277.23423081939706,-3744.8060823820097,1314.4871926199803,16507.10866389993,1759.3723842364288,1276.9037305735424,274.22471649842714,-3519.3887546006877,1370.1688061108182,16648.745366359522,1777.1055265179305,1255.7380108821312,284.0288564924411,-3535.187272431538,1351.9625443846319,16337.963807366901,1771.881096546143,1271.6114174102836,260.71869636994904,-3649.895420216,1301.8268636989862,16682.778787842006,1771.5108914640364,1250.2773553808227,267.83639041551805,-3489.083276025343,1483.1151975853063,16562.12303666595,1776.326359851539,1259.036254976661,285.57194332661595,-3604.3218140078006,1622.0974262089003,16518.89086948836,1787.3513154255654,1273.50745618195,276.2795588997845,-3741.222845984322,1301.6649752441965,16323.814588325813,1794.3678058173543,1266.2565791499885,280.498607905653,-3503.310635633629,1457.509507053704,16610.555915905228,1809.58353692611,1269.8319677917657,276.05863358034253,-3574.3518527596857,1117.6441363656854,16481.562415152886,1787.9130811551217,1268.108490248982,285.73085859470115
-3652.0,1364.0,16652.0,1746.0,1295.0,313.0,-3668.677990873212,1265.6556470038445,16658.23285636876,1731.572368131359,1298.4691180393265,315.9677066679733,-3723.81787665817,1313.7384929778405,16774.13579001135,1749.4933525419278,1301.145216365243,310.7330592940049,-3512.3996611652133,1259.7344186284918,16691.89174342433,1757.089940955577,1294.8912333344783,313.5453814749989,-3573.265189308221,1150.4576700002654,16776.680420499917,1733.6347260347138,1276.6165892493989,322.71062519189815,-3607.81916649968,1313.5457527166795,16677.731668601344,1727.3536668040092,1310.8027139188403,323.42272739235864,-3711.2945943938194,1337.0448273869115,16570.278337608983,1747.3212779709743,1292.3278217140569,313.1384185608431,-3698.267010346773,1280.3633073914707,16410.28828074894,1738.1835186743212,1299.3926167391548,303.09393688894903,-3623.438928069277,1322.5079700009805,16631.300914726064,1767.9177918807752,1284.6443974236004,318.7751114782565,-3500.3285609814184,1343.9764085763736,16788.765611720737,1743.129519958257,1290.6591904210281,311.6024750114081,-3671.725740273624,1230.5761289000936,16543.755842956783,1747.4059421081508,1294.2146699544487,323.46260999556387,-3523.4962704586696,1273.330473439777,16550.85036636584,1744.4234268520167,1284.0652596686846,320.00041643305894
-3572.0,1408.0,16592.0,1756.0,1304.0,326.0,-3659.8418387785814,1260.6866866343016,16648.35589779139,1760.5415474836295,1315.699322971389,332.5004245081671,-3501.690087756222,1421.300154423319,16617.95314103766,1777.4945160218992,1302.4445844325369,335.63016647186697,-3642.5307817198363,1381.2495835868829,16749.669496905954,1747.88013507067,1296.4262472791315,318.39052961468866,-3683.8661855907076,1447.0112172569825,16780.22429727079,1737.7621429395074,1303.9253066519716,344.68211547902143,-3732.684946091297,1273.7829411951993,16472.50726794681,1756.3139540592267,1309.9652231382643,335.2273988871158,-3674.4814989271417,1417.01804231959,16560.344037833183,1751.4698151733767,1317.8085829040183,318.4696395790018,-3615.77454575203,1588.893895323174,16517.017613175012,1770.9644315437881,1305.9827864648323,337.07625753945524,-3501.9149091160507,1310.832898035577,16762.154358113636,1758.0232061071843,1303.1722825160878,325.1699122095234,-3683.030743536068,1531.342750369951,16551.80756128158,1742.4113215582904,1285.8063479654597,328.66666459786205,-3329.004215009708,1385.3016935912433,16664.089877949675,1756.6094018171932,1302.5248858031955,329.3445555365251,-3469.6857308975354,1353.3573949175252,16573.12132677323,1756.865596648087,1305.2232542902987,311.54831164818097
-3592.0,1380.0,16684.0,1762.0,1291.0,309.0,-3634.2239373939656,1483.7631352882802,16790.312065375798,1773.9867824834614,1290.028350628854,305.23674099111037,-3529.6178175255977,1475.5923200901257,16678.28789064499,1770.0222503651437,1288.7201824009499,311.78058791337634,-3527.680560840657,1329.3471973742462,16652.570250060216,1763.8745302098694,1286.623760261286,302.1723113567279,-3597.533921218172,1137.1993226910902,16771.915891296085,1766.8693466273455,1292.9564653006116,299.4693174493632,-3615.551971002257,1259.775750904345,16727.038055878755,1781.6963610895446,1287.5163648105456,309.1411657607037,-3421.4376405492458,1393.7558167801192,16638.80959209608,1737.1063685203824,1287.9085072858084,305.37983178735,-3350.5133873564478,1314.7465018059197,16678.603471752554,1763.5439017654342,1308.4060622250136,324.1352055052888,-3681.235366348838,1484.8576690898387,16501.668399033777,1741.4787815518798,1285.3596562202586,306.1482518227381,-3567.9891032927853,1243.2767616880512,16611.339494366115,1740.2763164059224,1304.2328098588537,307.0469811936581,-3549.703609561141,1304.5087530769176,16613.608978191598,1760.9051549993587,1277.8896999528267,308.4586283044921,-3642.7946592786293,1425.3682002339215,16530.035057647063,1756.096432682065,1294.1047137759317,311.18531781860753
-3676.0,1420.0,16656.0,1701.0,1295.0,313.0,-3541.06878804835,1420.7474832641324,16663.767057968776,1702.138019939409,1285.2724540543916,313.5211615702296,-3582.036873743967,1489.606210792958,16579.391625679094,1693.458429787247,1311.3988791806237,324.62404767637514,-3636.6148348125625,1530.4257104415112,16580.393721065506,1698.2166618557367,1287.7463138044227,325.94798768568444,-3760.1787086416534,1492.0562096594454,16677.177838400374,1702.5013904762195,1304.0828084371278,310.3812455269566,-3637.5436920194275,1649.3099829694113,16711.141654072064,1691.4591109458609,1295.8947887218092,310.81851010204025,-3679.0338688943434,1521.0904300116833,16734.033169977673,1705.6757493122932,1284.3818420008852,295.6390023680792,-3811.417714337313,1429.7692489865829,16446.089367861543,1718.5639088672856,1289.7582832149212,301.36433139997837,-3525.2034678978175,1491.0909731544214,16653.713895942896,1693.007767220325,1302.4427904245283,317.588252431762,-3765.1916582892018,1325.046152503333,16540.566897223827,1704.152107451157,1293.139607769933,311.0607702410568,-3731.6868977902473,1438.4069996076253,16495.35986092239,1690.3162119632427,1307.5030285061164,303.9009810511261,-3567.547834723387,1406.892015750773,16639.872964165133,1715.0590519485233,1313.5825432494178,321.78519410015696
-3596.0,1296.0,16548.0,1759.0,1318.0,306.0,-3337.9696899742144,1298.547447261762,16613.902877441753,1742.7259671983245,1315.5371782788045,307.2523927503356,-3403.6825366802414,1324.7196593584674,16622.126821487916,1750.614787375303,1318.2697479272274,285.9200763507187,-3610.748250462841,1130.328435922162,16466.185464806436,1768.1940454348978,1327.9129672259048,309.17339877106815,-3746.5406492613147,1324.6164445120096,16597.23665554887,1762.881137074868,1320.8255726092304,305.619988941255,-3612.552147085502,1464.5952091870088,16565.075983693958,1754.9549612740054,1298.6632904388114,308.16588249765744,-3621.706972856892,1164.0303093973748,16658.93322859985,1749.1240247047504,1304.566834342915,310.55646836419095,-3616.1144060752063,1300.3226236437877,16556.146085891243,1762.1629777301105,1320.7350086465772,284.2265362905141,-3712.601057235133,1294.484905728346,16621.377802206167,1769.9594218474754,1327.2873473019704,291.7429138295053,-3848.0625660848286,1190.4116912003794,16484.10781923612,1761.5634052844862,1317.8979008129745,318.30459531597904,-3496.594994158612,1357.2128097584914,16578.360864262668,1749.3956777600329,1317.9450260123544,311.28486530491693,-3619.57500976957,1494.5785354192828,16456.728557241342,1781.155070124649,1296.6712658127533,283.8557700745333
-3612.0,1344.0,16760.0,1786.0,1309.0,309.0,-3602.5243836693057,1276.8535207931889,17024.054739614676,1796.3358639744986,1325.9304687874062,309.561049822895,-3663.4551353365873,1390.6047851433989,16715.92822408758,1792.668122461056,1313.37730018092,324.9502753992349,-3585.1476786130524,1201.9817438095163,16730.88204874031,1782.1457465089006,1322.1205077953382,304.54426466916783,-3636.845178815634,1213.8253542136958,16671.46676635867,1785.9146916801692,1305.0791812351904,324.0268870046291,-3747.904842724003,1415.2400069826297,16906.578570054167,1781.8351252098976,1313.8655226853402,308.2161026070824,-3662.9926596232763,1276.0871331174692,16733.835319572634,1782.730884626888,1313.5440224127633,314.7340984967252,-3682.430282306117,1343.1450978054581,16825.092780038907,1783.882470104993,1316.8963815951925,301.3984332158892,-3678.040257296612,1291.5120576902775,16761.18956781374,1773.339555608625,1320.47871389199,316.70247428462113,-3750.751026620224,1381.3065877641404,16831.039164814447,1801.2004229747959,1307.2344204260312,299.5543810401206,-3500.3062867672284,1349.3291705135448,16681.402128551457,1793.9432202525795,1298.894348446065,318.17429863848434,-3572.9136647351907,1368.9254260366274,16775.311773539273,1773.544410873956,1306.1880168692508,306.27134481915766
-3632.0,1400.0,16532.0,1763.0,1280.0,309.0,-3747.9325370772594,1523.0801017186693,16497.7905979843,1769.332089933452,1283.2366285633602,299.0318918721379,-3652.5961937114207,1417.3912783909075,16427.600929667668,1770.273290800004,1281.7807988440827,299.08382131934974,-3526.8080925711274,1516.071108420145,16526.75940499942,1772.9709810556571,1302.782766035322,305.92784150243017,-3574.8691996707394,1525.7449402195143,16502.414759633204,1757.4998906038843,1281.7771116234821,314.80385053519325,-3491.537217014602,1300.1202977734847,16471.384976848174,1757.6775329728212,1279.9199246971523,304.48662836907454,-3602.0873157980473,1304.4784010128565,16585.646922695196,1774.0233016582415,1288.8677908743284,316.6375496228413,-3642.0260019465018,1411.0430677619947,16616.189232090623,1768.8518767301334,1273.0443193548897,299.31326759183565,-3643.82712568439,1413.4924831844571,16391.570246873296,1776.5673840678185,1293.128992541544,303.0968929201325,-3484.1276611663884,1441.2325725135258,16434.19759598016,1766.488258812288,1277.8758566712775,306.471126974389,-3561.1139712884774,1521.241642678885,16496.836433270193,1761.6932433568104,1269.9824162814853,314.3841874151257,-3575.457898684719,1356.2823231135374,16564.252803411084,1749.1462260961273,1283.8785955963965,296.10868476499724
-3536.0,1396.0,16576.0,1765.0,1317.0,295.0,-3697.0390199554313,1265.0911316850718,16413.011114169698,1764.7010440306537,1325.2555977897482,289.88343252389126,-3590.1371190461396,1273.8495169023427,16689.92987494659,1745.8029461155597,1311.2631833571902,301.120011045244,-3649.967009433247,1402.8300650668218,16479.027622940357,1770.8797733599358,1325.6935535218104,285.7487433135503,-3691.0708514457237,1343.4825725656956,16555.92845095455,1768.3645355060798,1297.3436309945744,297.022944255004,-3518.6266641007664,1579.1746497203073,16609.93548837468,1761.556837269751,1313.8048639924057,304.9976129782343,-3543.3127002174683,1356.0696448393828,16537.95811340716,1773.8524765919651,1308.5271665800258,300.1023287533733,-3569.0724229460725,1180.0078444733035,16560.807769594132,1756.7125871004139,1313.6216353990103,313.4158913388274,-3530.951446416937,1372.9670111296984,16607.104941034213,1766.3394216768472,1333.6087592558615,311.0420482689267,-3597.5915491269197,1465.7337134897116,16634.908523638518,1739.6966620791247,1307.7302405321768,302.3716599844176,-3662.460447160794,1396.12667109219,16661.705616958123,1756.6610441011605,1317.2131629023436,297.0626897660845,-3541.3068158699307,1435.1356573382566,16901.511677638235,1776.2630813095202,1318.2445296237925,291.90898124943914
-3576.0,1360.0,16656.0,1678.0,1253.0,332.0,-3468.310668495743,1458.104959300318,16680.404074407223,1673.8262476557752,1238.5347934238712,325.5836302284482,-3573.7969128686077,1308.921807160143,16740.218555098945,1674.0106827337884,1233.212454136426,336.3429296546455,-3693.1851808479905,1226.3796951699414,16778.52012649566,1674.1913413117666,1280.0059125878338,326.5143295695942,-3522.2112623446938,1403.362825625041,16527.415433147056,1681.2253673272676,1259.748854966085,330.0081312236773,-3432.2049978126615,1527.6176006758,16756.641855784957,1685.4032901272788,1241.1341743257362,328.7752971563424,-3661.1377218587186,1464.4131128942695,16673.476708233135,1679.1375008142616,1246.2512439852364,333.39025521392466,-3503.604088316193,1449.5692553094896,16723.178020522864,1666.9369106722586,1248.0653361627126,346.29521687722604,-3493.8791160595674,1325.6618190488334,16639.49290729826,1667.0534386510474,1231.9692488948829,319.0234710542033,-3617.7589473804283,1355.5435368815254,16557.550478669225,1683.7447362800735,1266.0239045110452,341.8108039124752,-3493.4412699461363,1266.4765294944355,16737.337117838662,1662.6784795397566,1254.9614303667265,343.14256173130053,-3488.2069410911813,1486.2774569983897,16623.434979396425,1660.699316164912,1244.43414433475,346.68984250412075
-3548.0,1312.0,16476.0,1764.0,1323.0,336.0,-3490.6267894368334,1301.623778676361,16479.102258266827,1761.1395460854446,1291.9096169757322,341.9753618826279,-3628.5431735339685,1256.9209837988924,16435.224344166305,1768.9619206441346,1316.217870760292,342.85755231689274,-3442.9777302761076,1469.9869106378894,16535.716607693244,1742.5603216037828,1316.9096054205447,327.8659349103647,-3466.9960246815476,1247.416488967279,16469.521011291756,1744.1165092464357,1318.3345062462752,353.12257392487356,-3405.215974515213,1347.1644610122542,16490.299450306444,1754.2280764946224,1310.3332838718504,337.5868359845398,-3502.8741456020143,1229.9179432784535,16435.41529341638,1755.4368219457012,1319.1667147809183,350.4009883508944,-3460.013855582841,1314.4181467910998,16607.62508542006,1766.81490724535,1326.3924744995425,330.93946573580007,-3574.2255323647946,1316.873127893308,16421.39163818641,1759.0213153856685,1307.4968143492551,323.44496131110344,-3534.398575981094,1383.6643339877614,16350.696813444358,1768.6274922833336,1309.2546476824066,339.9778816722015,-3413.8481602119296,1369.7904209363112,16476.4380857136,1761.555224766088,1312.52048227058,339.4028248047692,-3656.4765763295345,1182.0209757702448,16573.292489182775,1758.5661407462844,1306.0097237941766,340.386626070776
-3584.0,1288.0,16724.0,1730.0,1224.0,278.0,-3728.286719705323,1203.275109062071,16608.811305916297,1744.7669736742546,1212.4872808084378,277.75914696550626,-3445.2293505292196,1328.01795482307,16866.196543691036,1739.014354720275,1228.4584201429977,275.9463825213634,-3433.1120632242964,1328.3286753428476,16784.354042988325,1749.6350302897158,1208.0881628968446,264.3115917295106,-3624.802052583083,1319.1843342318798,16784.115712691702,1735.8934657134957,1208.122523343209,278.4038615659947,-3625.849091492001,1380.8790225104492,16720.730671343295,1729.752109840176,1229.4398415506116,274.7357011134317,-3546.289385324081,1119.5797493029793,16716.608742840854,1726.6089526428254,1220.2857448607945,282.69462570134516,-3485.9319282932925,1248.5106585724952,16763.813909201126,1712.2099066956162,1213.499697097384,271.97688163104596,-3572.419150226294,1271.8888509362314,16786.1258123366,1718.2057629949843,1218.1639047567278,259.60043277570077,-3561.438227433061,1325.7681899631177,16726.984595980277,1731.2359211246874,1231.0210399282685,268.3374234400185,-3565.818810568903,1447.4204608076316,16920.340912170217,1731.2584767095705,1229.4544658724458,297.096082624349,-3645.650119465787,1251.5465493758134,16673.789296920575,1716.333739331035,1217.7684307218044,247.38381265450636
-3592.0,1376.0,16688.0,1745.0,1287.0,330.0,-3476.3024343111047,1521.2689617695862,16616.197675052143,1758.0420864548714,1284.69521408025,336.2060348034358,-3514.662597457467,1288.1814890966689,16663.9225472984,1743.410536419683,1278.7479122455877,346.7373105758918,-3703.151664979483,1553.9767876373885,16636.08423334085,1742.6812382547043,1294.6610989719343,334.58086000567266,-3508.1307115666937,1331.0861154996428,16547.950141792342,1743.1432238954817,1280.3722957243156,325.77488136899234,-3718.472458443782,1405.979052842523,16599.961346319244,1751.6275578083232,1305.4284639818602,318.10851773655526,-3637.4919769052267,1350.9707296249564,16625.511090037675,1753.4189664370897,1268.7771548928038,326.6826805744519,-3588.9140897436196,1289.753828633409,16624.596554771928,1736.863193654679,1284.375165564869,326.55295760610585,-3544.3841309239506,1514.5591729890832,16722.603011780426,1757.1263123880444,1273.8335246299314,316.28461327914744,-3607.702438300168,1503.1432715143249,16547.644586699043,1760.99173941163,1277.868726516552,324.84424730828096,-3663.3640102938616,1444.8364795474129,16684.722580918966,1746.2336244988085,1301.5261050991342,327.1110796192531,-3572.745239796086,1413.7455439329185,16662.785975196406,1759.1866211718675,1287.4851876155615,314.32143051093226
-3548.0,1256.0,16616.0,1836.0,1278.0,332.0,-3475.845357457334,1200.147652510758,16525.42390073046,1845.6441115926673,1283.2153063431542,326.2271111039664,-3271.0854928627987,1231.3465468437946,16515.741407897043,1844.0787322880678,1281.198805839965,327.62501633543053,-3526.5475673270735,1233.9225663985726,16591.824752448716,1832.8386685633784,1286.3605301041873,316.9196762323104,-3510.4312166572777,1217.2310427949178,16658.822986698084,1845.4620532892118,1286.0528065583328,325.10033431883835,-3511.525698340118,1257.6935195840767,16528.762526659808,1838.4299902954208,1282.4113411697833,320.99242849244285,-3647.4433386351066,1447.222196353479,16683.129309209857,1850.7684635921582,1260.6396127977966,361.2067764228086,-3509.5466629424236,1284.8601239305735,16547.77556942644,1840.897249836071,1281.1925800004565,339.402265244592,-3531.67012642765,1179.913888918872,16736.764713047654,1835.4189964063312,1279.5102124129253,326.1386949130089,-3766.185840667111,1234.4984165360981,16615.851553869245,1844.6513362201613,1279.8913292607187,336.163043957957,-3533.6329068253303,1446.7814872170854,16740.224846392284,1840.3355702892877,1295.3619044403158,343.2772930575868,-3679.7747520023486,1350.013287156104,16686.159308111255,1851.265467519681,1277.0325722666498,323.3622964066653
-3636.0,1308.0,16748.0,1729.0,1286.0,302.0,-3527.5874043247804,1306.3513067968127,16773.949783718414,1724.9476272269242,1282.2534052314204,306.6959998736164,-3528.2985565203735,1409.3270565766697,16713.6945336284,1746.908679382883,1278.3844837232782,302.02629183713316,-3569.5569056035874,1224.1665494962108,16808.171201150333,1735.475008446141,1290.0247335750366,298.709127220352,-3633.6923114153324,1393.2824786104807,16683.877789253525,1711.5544932934051,1290.237873794073,308.12064243288916,-3716.3221834292376,1172.9055900731676,16584.132377104088,1753.00164390476,1278.2236128567715,301.8278677967062,-3482.8606003874593,1507.7887042609595,16733.87991559463,1706.1785256408332,1291.1726020811295,301.6628724584858,-3530.7373594529877,1179.4772344646142,16583.715750462405,1719.6969250484028,1299.6975800634484,313.5762982196548,-3542.806454188978,1411.7931817700933,16774.67397018989,1714.0086585723604,1285.0587332737637,298.60247790055047,-3422.445351978997,1321.0519743211446,16790.41270198842,1732.4440252293884,1273.5917666653052,295.49230953721445,-3593.3926407730237,1271.0583995413606,16699.572263156908,1709.1904473506995,1273.4646126236141,310.05945515872156,-3643.603032293113,1441.568015405713,16769.59142522834,1739.9604469448188,1284.7845363013664,313.63992702724295
-3608.0,1400.0,16644.0,1711.0,1317.0,339.0,-3583.519131324609,1619.452384618866,16680.75532647809,1691.927435603669,1337.8381764229853,335.5369308503573,-3516.0965006699194,1539.0963061924167,16677.728007410533,1725.7890068656257,1320.792797860715,337.00520378166726,-3729.6949118525768,1560.3416014931106,16579.256923437675,1711.6386507503246,1321.2071192309666,314.063294367691,-3617.345428077241,1456.1092115345953,16721.845021179037,1717.2522991631597,1315.8326290333684,350.2146223180209,-3742.2560164186225,1474.2159428185503,16740.25848656264,1710.2797091518325,1300.0534345350638,338.30322168747705,-3601.4203749392022,1475.3579116397352,16659.681491523777,1693.6516284392774,1318.755415647699,359.7138709871789,-3570.8623605791163,1283.160008473966,16737.614545331387,1708.9709617242759,1333.2441863019424,328.21318223592533,-3532.5553160827994,1358.2148927086928,16740.372933992698,1708.0791638427602,1326.7473474243716,354.94800796939404,-3597.7174081040193,1511.3590922977678,16836.612302959384,1718.0915456445375,1316.9110138176477,338.1035810459727,-3636.907959572168,1445.838810259783,16720.632134143954,1720.6865470118603,1342.9115527557692,329.27219742757546,-3471.8852652356077,1406.223883442821,16817.759739772497,1708.6299025841088,1320.9367328520093,333.77127971288434
-3520.0,1376.0,16540.0,1737.0,1319.0,273.0,-3589.099912640314,1284.0248575590902,16489.910005807742,1735.9476495384831,1330.9508294835382,271.0568912734257,-3400.2467615780306,1319.8079980101195,16406.598824421948,1717.7131295756922,1322.2654109140694,270.5815174240415,-3590.005158173052,1218.1350759434188,16577.16043281393,1739.2308811998757,1309.4275356571375,274.91338689724284,-3408.875658119877,1461.8837670576577,16560.84244123211,1739.1283748066412,1334.389699408793,279.38791545936067,-3635.507849007309,1492.6315489434078,16606.27127719163,1748.4795401949673,1296.8089145185688,262.3891032409262,-3633.3797785417833,1428.3593114790233,16495.790276675918,1738.693906469402,1313.6377028441925,287.17684275115323,-3608.8222409820246,1494.44321179661,16291.192587184743,1752.869464950058,1319.0292294747308,283.7950237046158,-3507.9284635064114,1352.7929447325755,16513.455911978395,1715.4016878953803,1311.5703208577208,272.51817450499055,-3444.050329445984,1292.0469767800769,16513.150510633834,1732.205001905444,1297.6977699812128,276.39352161405355,-3520.6066850490492,1301.9414519587112,16534.93607338312,1733.496427440446,1321.8054357668523,271.36424983964173,-3494.8667349653742,1309.2048682319069,16638.291983643583,1724.8367316188935,1326.0957872350004,274.6480909790336
-3656.0,1376.0,16732.0,1741.0,1276.0,321.0,-3537.343392463087,1430.345177522469,16827.35899330687,1740.3718829739246,1287.002123271733,318.6548891884389,-3833.657103739157,1345.4064050200136,16723.678711700995,1742.9438610025584,1271.6822093958733,313.64557100406824,-3606.9559949771897,1419.3626510265426,16773.74860371837,1756.5196621588107,1284.7999143176894,321.6589896969586,-3610.8031986955502,1421.2451957841809,16692.162363219362,1740.8892143203736,1270.0348352696544,326.4125729514456,-3650.5113974758156,1524.1601787243133,16811.53482794357,1743.2180082090188,1285.184082035815,328.7640970461289,-3567.4202460689885,1443.6102079696584,16695.6096533769,1748.3367425398792,1282.6743128789826,308.7772422429463,-3618.054983251505,1296.722698674485,16925.60973988817,1737.895874640364,1263.3988431559528,318.35320992056666,-3411.330172324378,1379.1153480556382,16710.38345657538,1727.4426491199868,1279.657152825648,322.1470288130798,-3464.6889174121743,1322.9775309318045,16837.775186200364,1758.7047215727077,1274.9805507018568,298.48750730583913,-3769.103767157189,1377.7889690672189,16795.84844182004,1737.7545235394487,1284.5230686248362,342.9092490552581,-3670.9841056062746,1331.3418861771142,16868.62977383763,1739.475262751556,1286.2363067116473,322.25326127839594
-3612.0,1340.0,16644.0,1739.0,1298.0,295.0,-3513.4988264496196,1386.7488772578051,16552.41463055368,1750.919654433286,1297.6101396421514,309.6013541692202,-3592.232415168362,1447.7627964140697,16809.23834224578,1739.6551001826135,1283.245225584737,315.0100590713145,-3652.6601957262255,1230.8964424193418,16469.425501222475,1743.86770985971,1298.55628646661,273.147439842523,-3443.385937098601,1442.4847582829134,16748.909189162423,1751.4026759175256,1300.3703438340133,283.02557533908214,-3709.087654940827,1356.35992618984,16384.97771068911,1743.4910074767895,1295.8637196844322,304.0743244413017,-3747.1503135432426,1578.4550763931318,16779.25618044063,1729.0060100494647,1288.4853499959052,294.3431948810921,-3573.649309793787,1221.1471288521109,16595.77966126557,1725.877613296369,1322.8921533182938,281.0858726954591,-3484.994320233325,1412.8212541292403,16689.48422876012,1717.3494175765693,1310.3944498664498,297.43928508047065,-3769.354039558785,1439.5934575489714,16879.31937671884,1748.3330963405829,1299.271200491189,289.6419258023011,-3656.8013474144104,1236.865508565319,16771.937655626316,1747.6253411934943,1299.9867039236988,294.3509549354765,-3666.9591227201963,1344.6923625274728,16556.329758232503,1719.2006712000393,1306.2192169019409,300.36258223890053
-3544.0,1368.0,16688.0,1741.0,1295.0,305.0,-3427.6007250674916,1581.0006349833002,16827.51273773076,1745.0364998505916,1289.932942754501,301.1128966653648,-3463.8168347043506,1469.6839631447576,16749.971997514494,1749.6591129044546,1278.9313036463207,304.46739804798676,-3604.4885074963736,1383.9725213213899,16584.11217298184,1748.8902314181564,1309.7492627165832,293.6852802231075,-3584.8009088271,1438.3706339195587,16720.412842611357,1738.674348930075,1284.1305783800508,304.34249838476103,-3460.4225092833212,1297.9011213715303,16620.65763202383,1733.2764170297671,1284.666414153547,294.4200321617616,-3565.3220880400418,1442.0094581934839,16668.251932032894,1737.662649631797,1295.7337398010907,322.28814298224444,-3593.5043539295716,1432.2339318877787,16643.53652041049,1757.2821933607956,1291.159848369243,294.74910612731736,-3415.5861816610322,1255.9255257922164,16626.314813268113,1739.7444037076157,1291.9644428178733,311.12653409750516,-3545.536986081879,1324.2535700165647,16710.663876232415,1748.9948052198722,1287.0510693183792,302.4597165655255,-3587.4895455581755,1419.1255824565935,16606.880391870127,1743.1004089811847,1288.3289128176066,298.7095348342217,-3341.060479519214,1110.23818752958,16627.182878493124,1742.110082100781,1289.041586885647,305.97665914056375
-3640.0,1412.0,16524.0,1713.0,1312.0,345.0,-3729.5835912744815,1256.0203623295017,16515.758651454733,1700.1525357156775,1297.1264812318373,350.83880392033734,-3393.8449924621727,1320.7706516305466,16535.450871872967,1714.6071600435257,1317.3119686791738,353.5459648194466,-3767.3744414006446,1371.4971770310558,16525.09546624317,1709.575543539239,1303.9618917585192,346.3292847276824,-3520.7025139097063,1451.0907231405013,16522.568916421147,1708.0105856898465,1320.4800775002716,344.64290581307665,-3788.0248733771396,1455.8751015911462,16597.9398880421,1710.1586721453473,1321.8721290374733,327.97091591473253,-3821.6510261087883,1321.400633936948,16617.435598044573,1730.7183135769458,1310.9471426342752,332.08687459043574,-3833.9167586177227,1522.439101903346,16693.846212077744,1718.003687672932,1308.8633642777263,348.6012150364992,-3582.8557760191043,1374.2865873895867,16756.956112381642,1725.444294604018,1325.943397147735,355.8102852350603,-3626.2626930366805,1365.553886983002,16510.565595013177,1699.964015316885,1314.7631833662901,365.1538180299925,-3526.270446646132,1428.3744195430124,16483.41161095031,1709.9655526797849,1302.1594825880136,344.9129792468655,-3408.896524002101,1372.0444366956788,16615.740083708206,1701.5719799243268,1314.43068723018,342.9796962228012
-3596.0,1308.0,16476.0,1731.0,1287.0,296.0,-3434.7774000730997,1376.8043114807756,16450.879375978067,1719.3245249919526,1283.3991970331524,287.90713839085424,-3536.6069342694886,1319.3858728068346,16625.336970825316,1718.7713290698755,1283.0312682977888,283.3363474525167,-3542.149918411279,1494.6494030492222,16443.55279806172,1716.9740364344295,1273.612146750087,271.5491504871485,-3511.9775287054454,1470.7177344815127,16452.475854507065,1729.9297662727845,1291.932304076465,317.66514059427743,-3680.572994565044,1297.7733490956182,16370.710400307988,1751.3639610061991,1295.6694842685692,304.7595495440803,-3750.812798441683,1275.8765364041171,16439.228711847616,1735.1584490417763,1288.0217034937955,288.48225957085856,-3620.672401879664,1186.1443392253511,16391.92212021333,1736.4277426244591,1289.88782821803,299.884319557257,-3309.0537562527275,1371.4734564585997,16471.713863669025,1735.77367539926,1287.6327010194864,285.5392053610749,-3739.957468093236,1283.8722712885324,16606.1447162383,1727.7739548932623,1288.7873804886142,295.1029742970195,-3561.906148115517,1380.9428615688844,16449.86914331028,1726.8321742327628,1303.873733247531,274.645996608003,-3647.1995405638027,1369.4195578539736,16489.994887269753,1733.3079969363077,1264.277548243325,297.02274192049964
-3656.0,1420.0,16696.0,1741.0,1271.0,326.0,-3528.0162924337583,1252.8329134595995,16914.179260836896,1729.9704945632268,1288.536495493382,317.23569587213234,-3736.4444253776373,1517.3097338408852,16745.570931229733,1734.769196315041,1285.657707552867,327.84444782761443,-3779.7585400590947,1566.9985570536865,16727.269730828244,1741.2644643580916,1274.7628653804832,326.2313171570343,-3562.471532419172,1452.4246130214422,16686.23893577944,1740.552119033471,1275.0321899426742,326.8124430473718,-3667.076024470576,1329.299601680383,16646.251390770463,1760.5036945259772,1276.08485309728,338.07096321624357,-3630.104999592066,1510.9837908671666,16684.133338771284,1733.1914823770533,1274.4021245651452,337.49908370396594,-3636.085437198948,1497.229203898988,16561.6907844442,1748.155568885399,1270.1103642575529,322.1767372405771,-3560.8060230169617,1305.0181426846466,16688.250773516786,1725.6754588625802,1248.3035981086755,344.2545101678701,-3708.4505045668484,1278.5698072367354,16746.729504161343,1732.4519717819403,1268.327198444872,325.2816459437879,-3690.113878662958,1486.994125207619,16667.92278039069,1747.4638553108655,1271.9462285327907,324.8914878013549,-3527.822478497315,1492.1228795453605,16590.48261507558,1735.6925256587394,1275.5122600801117,341.63065503852033
-3616.0,1376.0,16624.0,1784.0,1302.0,304.0,-3640.966095184005,1374.3294658010595,16631.89706618033,1785.7230028561205,1307.3883650224416,313.9899734980163,-3786.932732123722,1296.2446542629473,16446.13824121617,1784.4709886284827,1293.8221316103711,303.53578688731835,-3596.5773445175355,1503.2139064430078,16669.10448039868,1796.9868697540153,1302.2042615163884,305.4938637485317,-3549.879836512463,1397.2277483196794,16581.166472872967,1783.99187559738,1315.079938798939,301.64323133786877,-3504.8175202905895,1262.2431369317333,16418.95411838018,1772.1894769034072,1313.0460447029957,299.7725886601215,-3505.8111556411955,1236.4604684113638,16632.650795783902,1801.8194091126275,1300.3670500570954,294.192402607087,-3791.0634811904547,1422.46197563831,16673.97284764334,1786.0826964738296,1304.4443600520876,290.5231919081898,-3688.447642510095,1409.3855181948215,16631.27876865926,1767.5858955504689,1299.4174638812078,298.3598277873603,-3641.518371083091,1288.9459245410007,16616.699009425745,1768.332586099316,1308.1508515432374,288.42819007672597,-3697.203342577188,1384.7395496323202,16492.744834572575,1788.9436910692264,1300.4819520706849,309.75435790372137,-3458.2555135839552,1430.8592453677782,16662.824356663514,1787.1316870360138,1298.485316588241,303.60039328006656
-3596.0,1332.0,16516.0,1748.0,1284.0,327.0,-3479.2512677459927,1425.122107491112,16392.02568691397,1759.6622010015344,1290.2676431820053,336.1304314025021,-3566.7575624892797,1323.620593810596,16476.090925110402,1748.5889543311823,1282.3285888467321,332.1365782268355,-3330.0317644072857,1303.4907512390664,16529.201245490254,1754.4197337780224,1282.1420595749114,335.49468751784576,-3666.038475873293,1261.0366260472974,16592.50804927007,1750.505251882204,1295.3126101275489,333.64531059818654,-3706.687323151857,1137.5466272415924,16642.499514114243,1756.2838954336155,1296.2315808739354,315.57545211271116,-3541.9393141529013,1364.0523351745148,16329.951178476458,1745.110579569656,1265.5526235572704,327.30759295247714,-3536.6190896495236,1324.8526519696109,16453.333888308356,1759.8480614852733,1278.626403213279,323.07580349336735,-3684.7165092358982,1575.3919084700685,16490.101783065562,1746.5431374325615,1291.9976768952097,312.0652978017961,-3678.2285662495756,1293.3420154801086,16514.605287697545,1744.213990282262,1270.0411433162553,320.6486848240841,-3605.2043957900914,1446.04889159851,16528.507597689873,1750.0987278387663,1293.3997062948456,332.04135206761896,-3533.932029309485,1389.162082165464,16410.62925211628,1734.4824747457499,1275.8599231313242,334.2497022615669
-3548.0,1372.0,16620.0,1743.0,1283.0,336.0,-3681.3097610777863,1335.146744219657,16836.122067814926,1736.1406175690393,1295.3565888498595,333.11128705484174,-3528.3248800332403,1353.419435196944,16802.843296902895,1732.7175740771431,1278.3154729458183,331.7430377743247,-3422.305153974932,1318.4620816727931,16754.570060220474,1754.5806425830917,1291.5286185043258,335.26007179144364,-3604.284325332644,1424.6041723116161,16686.438087465303,1743.222513474991,1272.2905200115015,332.88571874132623,-3627.398736407046,1435.0679487503858,16604.383055538525,1749.7689092166436,1253.5715198227392,329.93989439504156,-3388.914854739143,1240.2495590186527,16589.394171403143,1734.3994079166057,1296.6768883976513,334.86529779419726,-3679.265160910275,1281.3066317187777,16746.676332667983,1755.8644952775962,1283.453191428448,348.9229760382402,-3737.136875240509,1402.9975042422175,16703.838859754997,1744.7741995996496,1280.9394865883496,351.5591603176023,-3527.1031908926007,1223.096018405274,16705.643338874175,1738.4780799354817,1289.5714191620107,321.389430821263,-3544.454298826636,1542.5421552848718,16546.422362321027,1734.8062423572276,1283.3195331098702,358.7787119558854,-3400.730268283912,1494.0288688267647,16412.43141691881,1739.5017205135134,1280.2531999367654,320.0854530591748
-3604.0,1404.0,16588.0,1787.0,1278.0,297.0,-3338.455816593087,1439.6094636187277,16640.016165676476,1799.5586876310267,1256.0579245782646,283.00637519022104,-3674.9933881787597,1413.5667086673686,16497.545907958534,1776.4842414442917,1275.2064335124044,306.6562351588528,-3685.8042775874524,1325.0317830134954,16495.234041934884,1796.4405446888509,1273.6227210383427,306.94247058337464,-3560.9510375565787,1327.5422874384094,16652.1851438478,1789.440825406322,1284.0739392410649,281.429599984126,-3682.1838871587875,1380.5450115565,16672.258650290627,1804.3929805381551,1283.8443458227935,298.6681297009076,-3590.0887077643392,1442.154280823804,16467.649711332037,1799.6765317146676,1274.6066911192097,299.1034119246442,-3695.964915281252,1470.3127275730885,16591.99385872395,1778.1548931621935,1279.3763206305937,300.7402303355549,-3729.766072153672,1350.112429545903,16609.62221338228,1789.2830827382402,1291.4068438259408,285.8307737665128,-3787.5741637645315,1326.701304487471,16532.107908878606,1779.456862529427,1282.8927611786576,301.25473217335957,-3520.9126784726254,1453.025371840964,16449.221348170784,1779.0267818379143,1261.9383876458674,302.12403581806683,-3612.4197410707825,1572.7365636455481,16478.880803731343,1788.4560331133944,1270.9168308828635,308.6543677672344
-3576.0,1344.0,16592.0,1745.0,1277.0,320.0,-3504.234015565989,1255.7641079268433,16623.076107495173,1726.9214503431465,1268.4547061860387,317.6339087214207,-3577.5207476003757,1349.1836685740702,16464.265713251276,1761.355868416391,1289.6403329958773,320.1150938270857,-3693.4121248083306,1323.722301909923,16461.576350255225,1731.797938802468,1299.1892791718005,333.73133668774756,-3570.193360275125,1287.4690191542134,16487.852231804114,1746.9290436984168,1278.4805564154806,319.5768164345492,-3494.9609623707115,1321.4681605872631,16694.939545342302,1759.24659038355,1274.0710922675908,315.03789577235256,-3594.4070569357773,1402.0800778658415,16672.628623247474,1755.3164976999974,1262.6571754967467,313.39464008955963,-3433.3275291058435,1581.3216845806664,16500.531005357578,1727.4644091788398,1303.838452750642,325.007314935861,-3632.3226822257034,1402.4800655041417,16653.207903524122,1758.3166157306698,1257.056275694632,320.73923378961564,-3531.4227318136695,1298.7101168591955,16624.044852794865,1730.5181888368404,1279.1908417868106,329.47732031277167,-3514.295088167373,1317.568061795188,16537.16471337936,1733.90840585256,1277.3870123916017,317.0451993821883,-3701.4519253872822,1303.682473540479,16601.15147815829,1753.4037809714139,1277.9216392918308,310.02245927086767
-3588.0,1360.0,16668.0,1753.0,1290.0,308.0,-3567.7556488983705,1508.7359271600167,16740.55734795886,1747.9809012082462,1288.6658867165245,306.96014780156474,-3718.1691141183937,1327.1387769047894,16793.1116613442,1750.9235111796686,1297.486284202389,293.79336717432966,-3492.341431955394,1408.2567818745044,16347.30715040963,1749.5259370645751,1293.7308927856186,311.85042981204015,-3493.1610850397233,1456.3138158117645,16805.64480165014,1732.1871822251073,1303.0608809704804,311.75290976866665,-3621.274721604831,1375.4670594234437,16737.929407332027,1745.9396829647724,1299.6070639504626,308.7349434721109,-3561.3251250580806,1258.6937278339992,16604.02968429876,1763.7567776786739,1304.9753227855392,310.21331232041746,-3447.8579477309786,1354.0639264340962,16668.619002961546,1750.5510976416838,1299.5110884846652,312.235168860933,-3531.9293609723945,1423.3747510395974,16723.428192589978,1762.9639289285665,1298.6288209232944,311.07200693577823,-3518.020610169138,1381.3264214690205,16587.58064864338,1750.7898304019095,1273.7167532957183,314.62981950519827,-3627.9311405644276,1490.9640448561506,16675.62165374165,1766.8138088944963,1309.2138045709596,309.16202652397743,-3716.8365445196405,1511.0361062305358,16576.554761475214,1744.8818230275335,1296.7850088534183,326.2602624824137
-3596.0,1332.0,16752.0,1771.0,1287.0,311.0,-3682.137053242538,1371.8391663551595,16732.943398635387,1784.4240124196622,1275.0364703487926,311.4864189238573,-3642.5225627730356,1337.0363369009353,16587.16580750598,1786.4045525301094,1304.3190089685065,317.7667322427204,-3594.106673083097,1249.4991855116784,16787.211269519925,1769.718108856244,1277.6124259820845,310.0286140798449,-3508.399999770479,1308.7480403598122,16711.93076117966,1786.2073645171251,1265.8668548192888,299.29294533593827,-3474.9913369407773,1279.506068482966,16731.471595346222,1749.7465045900415,1277.9334029011216,322.4394419835095,-3626.766264582004,1381.3620379384056,16813.44165647768,1782.946402287043,1274.7748107957434,319.1578045155146,-3432.4661855493996,1503.4088358513814,16890.48390328379,1754.0039562961695,1284.4249114869478,309.3965270549793,-3457.176378540884,1320.9279202041882,16706.616220730426,1769.141584508652,1272.1808232167443,314.69053634070576,-3571.2864017762513,1281.9913922200758,16760.657366667056,1782.8945079427822,1285.1867187926475,305.0605818046679,-3510.3809254032117,1471.6225010157025,16835.01682496674,1771.383943317056,1304.379598726378,300.7619955109185,-3751.548827952825,1423.369272777415,16780.891062774102,1768.097270910349,1269.8184199051393,307.99489406099076
-3576.0,1308.0,16680.0,1784.0,1323.0,292.0,-3440.6373604062396,1198.3684913964125,16570.632760384575,1781.5316979227773,1324.6761446141313,302.3063574726922,-3558.488529039023,1159.1522292863926,16711.3541361368,1802.0761449354652,1314.3526356874813,302.6190540624175,-3706.18136150874,1432.6187161199887,16761.15862153079,1784.2634035280694,1322.8555449729188,301.8609897524891,-3646.3383468830234,1421.2158963335958,16709.097031340432,1778.357929248487,1340.670527174108,292.5053697047397,-3561.435912863826,1213.892092370781,16638.775194211976,1771.4061222824548,1319.8808199644857,283.9318905830218,-3469.8251728995306,1339.3817210035222,16717.988932009932,1762.741915761733,1317.5397546994875,301.33133652483474,-3565.605952834948,1280.715717537607,16754.513837915212,1777.8583714351796,1342.9569716586366,300.8839061686326,-3401.3260365258557,1350.5554986203308,16672.72512122208,1773.8724529251285,1324.1891554786919,293.4843950106391,-3557.1772795437587,1205.3404117707378,16789.617126441448,1791.112115518026,1325.7067955972182,299.0470642181376,-3731.9972222869765,1363.379811963161,16530.601954818438,1797.4031753222996,1311.3164865893405,293.8083348734298,-3676.667005531789,1440.884395064149,16705.971133898867,1778.171705977544,1331.5308220466084,297.9090992622329
-3648.0,1420.0,16648.0,1767.0,1291.0,299.0,-3606.774966247915,1539.0245110217606,16716.43105008777,1766.5939678698114,1286.5021847695627,301.0448267113556,-3533.62748746665,1367.0849260562115,16626.674741425788,1780.1078970109374,1301.3317994328308,274.4571756373239,-3916.1562198314446,1465.445197429215,16327.108292495825,1746.84130343824,1295.4680365747752,304.33005436987077,-3514.45320578661,1629.2176170359655,16583.946448170704,1759.3804518776233,1297.354324065285,295.30538847135387,-3674.758727760099,1317.0599986833695,16599.43381211877,1761.5625332063396,1294.1987437121527,300.8461064818876,-3874.944273004411,1482.0918136684604,16894.561981651965,1755.9837517258397,1289.4609999524007,300.27333652996765,-3671.4593910269946,1450.4532679241024,16746.053324842695,1754.1323357421447,1282.4895282586667,297.18754503507864,-3860.119895436403,1505.6789605299084,16662.342821783,1761.1729795095603,1289.5626088868148,290.0031361478426,-3786.3390770666583,1270.482351070391,16733.36143191929,1756.2468418403796,1313.2669701452212,313.66927972744634,-3783.9160574692273,1549.7185448237121,16689.1817726622,1773.4292151467985,1295.7373315458592,297.4398080863144,-3722.4803634702284,1412.0703198397534,16642.575760828597,1778.2060596611939,1311.5721447610363,297.95650900424954
-3648.0,1312.0,16716.0,1756.0,1303.0,306.0,-3668.8342577877784,1275.6314179615872,16627.064589886308,1738.6131777062203,1301.4378862100334,293.45926602221886,-3690.5291271172423,1258.5564093103885,16673.51891285348,1753.3525403488748,1294.536550475658,304.2918219036049,-3630.645539548831,1204.0956324990627,16756.07515020046,1759.9473655910333,1307.1685658406277,309.8196368431438,-3552.367893233469,1351.3179499181326,16660.969934720164,1759.289387620222,1305.4282201164835,292.6192420820877,-3654.8091014175225,1176.4906334990242,16656.887427295995,1774.25799721455,1323.3903436447963,296.79628593930073,-3590.7837885107574,1141.1719557412655,16563.347709129786,1772.4109837980398,1300.0224843878389,300.4831956565296,-3587.287100405169,1304.6613634693344,16776.527632511123,1760.7092960810678,1307.4436854556288,319.60601928534555,-3545.076711008115,1194.9561472894482,16851.01398082946,1755.926036259392,1321.7302482654466,295.8393821599077,-3679.3213086031183,1255.815152588961,16647.805836960586,1767.62594954454,1307.7739324828735,299.0831773775514,-3682.4716526089246,1102.7506939202517,16762.67788237052,1763.9703447623679,1316.9874098826301,290.27400005057416,-3701.155986905784,1322.604174317061,16680.87989899556,1757.8487931600218,1311.065432575534,315.29312289145594
-3744.0,632.0,17636.0,788.0,1961.0,646.0,-3716.4641481946937,589.5229057896369,17821.43659965593,803.5100820828226,1959.6369357489907,652.7450061412259,-3764.307075176262,631.8475395641352,17661.10591934715,787.8398341120044,1967.7736697870937,645.1828328526688,-3837.0788515971353,593.4667912461663,17552.96781051195,782.4591302378724,1956.0708167462315,671.9776869172942,-3860.58756515823,473.98458231442527,17799.41899275314,769.1105121062386,1957.7809360522826,653.3814025367952,-3744.544664726481,633.2478691313219,17770.31852733762,800.4921317520858,1958.2133199167392,653.7988357413751,-3920.132431100835,659.5445213558344,17603.147627350365,778.6045859971347,1970.4301522965952,637.0492358008069,-3878.5845667926565,641.4591957040826,17285.213796097596,793.3920317997988,1949.767904599356,637.9435734912875,-3798.6146447653387,603.238810307623,17408.726822454966,778.6342525342036,1964.0915010647448,624.4345402706524,-3669.124820642519,621.754223456891,17715.44961239154,803.5980015213058,1959.085303051924,661.701770786937,-3930.252062154351,790.0989405134444,17744.67004241767,794.9128396366642,1962.1465327266276,649.8197697340828,-3618.929167877298,613.7530461166792,17507.35602756866,799.9358373827947,1972.125142989134,632.7530614243873
-3492.0,1508.0,16664.0,1187.0,1568.0,261.0,-3546.2497225848856,1403.9731576205754,16588.16873464055,1176.658189864166,1573.280331510076,261.26566293831894,-3728.4180407596145,1536.4302655497936,16797.837146856295,1179.8227983601544,1557.1220475534442,266.00084046818756,-3374.7313113549662,1331.632026245717,16588.892009742016,1196.004163604888,1582.6453439943514,264.3331218314085,-3575.913119694908,1429.1484688395565,16682.448284788417,1199.2561059321185,1563.1484819987052,281.9016762114178,-3551.2905206694336,1578.0742610543161,16741.56078597142,1194.7472270208666,1569.8727604833553,252.56307427466933,-3496.942149577427,1515.2989948016377,16629.875212469957,1196.2860935051335,1575.2775516486406,259.90818825037394,-3244.3205814031917,1379.1146060705867,16740.487978665762,1188.559955768891,1576.576612695086,260.30196057016195,-3515.119278152492,1296.5728194020028,16546.7753426701,1184.2973894286274,1563.3102493578763,249.85178307715427,-3513.6722576717107,1438.5324774492005,16763.34730765261,1203.3059545351387,1563.0462435894804,258.9838930855212,-3406.2503332417264,1515.4529878518704,16729.473449775054,1193.0437085441854,1561.840281976565,260.422057845813,-3345.668438153469,1514.393995889501,16683.47070497274,1191.823757915881,1560.9305620904468,265.6013870570772
-3660.0,904.0,17152.0,2048.0,1105.0,559.0,-3780.914593372497,852.979306603559,17105.627816306725,2048.9658394198614,1097.4927432746224,567.328384646492,-3931.9299544234937,781.4042256890453,17101.593008196294,2031.4518739478078,1119.9192354300308,534.6589806876913,-3727.856097629999,871.7651789452148,17129.210936001407,2042.4621232349427,1114.16681347261,546.5065983092409,-3639.048986804667,791.5438918100004,17061.84597280005,2034.2098870325503,1113.6644792919594,556.3486394936695,-3678.894271422827,843.4843342892144,17147.582060602435,2045.4677139322785,1121.129352692651,561.7728916700656,-3586.910248843714,889.2754021138093,17216.094424885992,2055.5872644189058,1107.7245478197583,576.409596821641,-3798.9082816995933,823.9183955704465,17170.889861259235,2054.1226783911366,1100.8177875063686,554.0972953152485,-3443.889304178884,1056.7100757607686,17184.639653193834,2051.02553774574,1092.12989672054,559.4378881750324,-3705.427099018224,1075.387581671475,17305.78763633205,2059.171838358192,1098.8525820834839,563.7365821562657,-3676.8174323814255,954.0817536231656,17229.94663111622,2061.4521812353664,1082.99751153826,549.9403712299745,-3595.2963215011423,765.7701711635073,17294.053875373556,2064.6361868640943,1113.4932899816256,556.3337279384779
-14456.0,8328.0,32767.0,-13935.0,-18396.0,452.0,-14359.49119910083,8287.791780413145,32593.407380619003,-13925.911031377462,-18393.370378517917,458.9118762517555,-14403.006268516048,8477.136198866185,32680.515007574577,-13936.051569448426,-18400.760077696108,458.75730153326975,-14500.06759907319,8173.953184915227,32768.180450872525,-13920.795984760647,-18400.23101771613,436.09677914434735,-14591.688837022019,8425.290410836704,32642.223283959385,-13925.76108950234,-18394.973277563917,446.9524243952446,-14476.240577697841,8318.700393641368,32718.28803575762,-13946.86411620558,-18388.32964119747,455.42555326637466,-14656.478946610125,8431.198773772843,32578.29451088642,-13937.725180745714,-18389.40512451142,469.2962085798074,-14370.1179733082,8286.039810142614,32698.43207056617,-13944.53416647691,-18399.943705984246,460.3531244981258,-14585.170319097118,8340.455431628878,32641.188426155568,-13919.771711957294,-18382.554297604653,454.52089696070334,-14499.232803732672,8167.077930203291,32701.68929441577,-13933.275750382625,-18395.783594471875,435.4356879533567,-14489.959918801203,8363.94955029009,32581.002896619582,-13940.428144549307,-18404.70849275004,443.68995873143984,-14361.566880971124,8200.350083983558,32795.85849623983,-13939.938959540455,-18411.356087243093,456.8261208281391
-2744.0,4884.0,10316.0,-16683.0,-8638.0,-223.0,-2635.230961096408,4663.81246527727,10419.026700692611,-16693.007644625766,-8630.620421326783,-222.27266580647265,-2875.1212929178787,4905.2938327271295,10301.834198672075,-16684.014058081248,-8660.465247349439,-237.4090188434424,-2698.1710836992,4890.122772975692,10188.344337531415,-16687.222031585075,-8622.038084473163,-233.7891253981685,-2629.2426811384516,4689.256108673285,10257.263036879445,-16695.75154834771,-8630.806638902835,-234.0937515604961,-2725.6813120722427,4888.617071149405,10299.033965148277,-16675.034550071254,-8627.669478797066,-205.56225855223192,-2852.1525872032485,4842.419974776102,10338.850237609711,-16690.865209541094,-8655.338850504857,-242.625714837076,-2876.865050144012,4824.448547698238,10204.844997886474,-16682.10090202456,-8648.478514955415,-222.86576081818885,-2795.163782619329,4688.367501567325,10302.179335189305,-16701.30799988564,-8645.72846228186,-221.8671335065406,-2874.9621595294266,4762.75307738599,10396.824439466445,-16674.74913937844,-8653.225601747356,-219.2940189724683,-2763.2237154141076,4813.396083058744,10317.724945011572,-16695.51911493647,-8647.399013687851,-225.83561681696975,-2962.464717794271,4773.557883312332,10327.985895801223,-16659.022196813177,-8646.25147281746,-231.21162870637247
-2524.0,-356.0,8172.0,5639.0,-587.0,4297.0,-2355.0781682537513,-409.2527288034031,7950.130761926836,5642.438916671827,-586.0800515779415,4314.191922747642,-2644.48513173652,-457.2046182338816,8216.456817606762,5622.759461733381,-593.1470174143701,4286.445441630199,-2574.396313454804,-616.0250322533881,8231.778002587364,5647.917806086243,-581.2120489917933,4299.396480623243,-2526.8915920946283,-377.5091440247194,8195.971392917498,5634.254042961386,-587.9694029359447,4306.3135173517385,-2531.739598119819,-374.08363981206685,8037.098966894097,5635.320639817437,-592.157149242244,4287.508757750754,-2495.2849842557284,-417.4754655719975,8149.173246142323,5638.47525836469,-591.5576292029727,4304.766841069166,-2537.8376229674645,-380.58620869724564,8131.681442272638,5618.340116990965,-585.2374302550555,4286.860441424711,-2458.8594005595774,-400.9532394031021,8108.19756742373,5637.899306077286,-589.5232939835722,4297.957488594848,-2668.767459308764,-313.97434448881364,8060.4910934252375,5644.922312422796,-593.5830372845165,4302.57436543065,-2540.282896106392,-283.4941315694357,8068.86752221206,5631.504916455979,-602.1906050702344,4304.914734788877,-2527.157067194318,-287.13489746697866,8145.131828800932,5639.626148499062,-589.4911284971851,4305.857077555717
-916.0,-1024.0,18172.0,6174.0,6481.0,3891.0,-978.7347479649895,-740.582137906893,18109.133990931878,6178.8381673721315,6475.499504626597,3882.855964749803,-978.2181805197673,-1051.8016777319933,18284.896639746057,6166.933350436662,6490.222198430377,3906.593901918352,-780.6157942978529,-1059.0285517481698,18291.240557903817,6154.083875692899,6485.060553353903,3896.6078480451197,-821.2880827898327,-1043.57050613441,18360.347602663147,6167.328551267168,6455.559674929476,3906.94523122971,-921.8120233219803,-1068.1555718869417,18204.160784388787,6147.554253339964,6474.095569933943,3897.525073434689,-720.826005505265,-1050.2817030449119,18038.478306526893,6165.646464126855,6472.800137963646,3872.565769853006,-1119.6458990975984,-1088.5981689883117,18245.805501624607,6173.981560312937,6473.327428677602,3893.0160690651014,-1025.0348791704841,-1137.5073730184781,18067.426957243828,6163.075873132441,6469.508547742083,3879.601026090968,-831.4085505812562,-1106.4616120578714,18127.851371329787,6181.619574518829,6466.442042716878,3888.8093335956473,-887.9358003618457,-1011.2027055993301,18149.701068737875,6182.776040880181,6487.141197927248,3896.225062059234,-995.3812695008487,-1061.6353873148387,18122.440918919136,6177.2213222114915,6470.90418639983,3882.8428436376016
4464.0,-10384.0,19548.0,608.0,1168.0,404.0,4687.4951062774935,-10458.286619678682,19544.636913353203,633.2494640042354,1167.9451820700608,412.47238647609066,4443.831430211929,-10502.698637096564,19536.09771736583,585.3246251623877,1178.593315797653,406.2109273858617,4294.341706125681,-10229.548549330864,19618.30720605571,611.2115404219152,1184.628024654897,401.9882823610563,4614.459950200249,-10300.794425272412,19552.454146557764,612.1210858033862,1178.8460796686863,401.095886121205,4377.256725166205,-10393.903141405423,19666.187744779058,615.3941393607951,1146.0623986224382,408.12887864790747,4367.826631613474,-10332.43947997373,19556.42822515897,621.607683293776,1175.2218986914836,392.2151844300381,4215.511916296095,-10533.554661064187,19757.650665726807,589.0602115660743,1160.8195308513004,397.7409508447929,4470.400617055665,-10575.373551868759,19522.69626771496,605.0218241767875,1177.429467534506,400.41501641550286,4477.767256280486,-10443.0991163972,19592.862265066928,607.8720285098042,1157.8068566663046,403.5159436601551,4379.145291248591,-10472.436124958307,19663.671415533576,603.1681190615719,1162.5596268518113,400.98685518882155,4521.276762183485,-10410.677306664953,19438.932250029255,599.7218407306856,1154.9858661730707,401.86991856208556
-3072.0,2628.0,19828.0,2489.0,4384.0,-3619.0,-3087.6418785024143,2618.5274966002676,19784.998112446003,2492.770881770871,4402.991980783583,-3621.8997360713633,-3212.845096813356,2779.1636215533513,19664.5208016192,2504.600003742909,4373.632699897677,-3637.3287934248747,-3109.7098287503677,2642.340228038194,19809.415893041743,2487.014756658404,4383.005130249153,-3622.8310366135943,-2838.789599231324,2650.8400045675226,19781.830773782825,2489.1642684676335,4369.63377412507,-3623.97599996876,-3044.5449361160872,2643.064602255803,19766.127078553836,2491.2059415773874,4390.6970050115915,-3633.1840106600603,-3216.599607387635,2599.662013602553,20035.282658351953,2481.957461006867,4384.8609764100365,-3609.057862187233,-3067.971311972563,2572.9356157099983,19848.303798482437,2508.213898625022,4374.836748938658,-3616.9490394380223,-3021.281169034252,2698.816358072361,19807.3949742152,2492.786155421571,4390.777418245488,-3638.85052018694,-3178.3344594013347,2625.7059031715607,19923.19719109042,2491.4080813507294,4388.8639211442,-3625.804356209501,-3029.3908929427794,2654.1447791194964,19946.962012427335,2496.2480621747227,4371.469570558269,-3615.868407372454,-3212.2835096187027,2642.0120500733697,19732.550665887862,2490.742194698821,4394.019587081361,-3607.298285217181
-2548.0,1952.0,15844.0,-2817.0,3610.0,4750.0,-2591.121085164389,1968.8141249035327,15705.314789312222,-2795.5086564087705,3608.595182335146,4768.227157084754,-2463.1610343122857,2047.623568171664,15886.553382032307,-2805.459379799771,3627.191667774693,4751.038855542921,-2486.594538532699,1883.6647219380711,15640.330910086075,-2810.879185930184,3611.41688482054,4743.192820454068,-2696.3173373054824,2050.9274452195796,15948.461618970803,-2813.540675305391,3604.4958571891148,4753.802440147459,-2489.594747852319,1949.4354708220071,15823.679030858097,-2801.944945547501,3603.4790693472623,4735.228799446662,-2533.4037143854885,2003.1207936067526,15685.512369272292,-2813.341846562415,3603.2345041128056,4756.664431977521,-2485.8369925760835,1771.0399127812657,15841.35980978478,-2815.454231196571,3603.718799963243,4759.015612592276,-2442.1153438149354,1998.081597662756,15911.74450059823,-2813.0191687029987,3600.6504181755304,4736.689217701107,-2374.028917602113,1690.4211261039507,15694.13641391502,-2810.7858432502526,3600.32919874498,4754.649599170751,-2462.3035121523367,1986.281922831321,15882.735475559728,-2807.7775781933083,3610.605685660136,4752.772201063794,-2490.7055891497926,1860.315667523108,15973.582567153704,-2842.450369468757,3627.291983577309,4759.843721238181
-2108.0,3560.0,16092.0,-131.0,3016.0,8247.0,-1935.8341208510926,3582.2700357525227,16052.350754619152,-134.022671651037,3006.043923982809,8248.466028896304,-2006.930086241112,3624.9993477090075,15841.306120797,-121.30260304515912,3008.8049335672245,8246.92937239746,-2136.0991518491574,3514.0381356899843,16070.037783262498,-131.5683003811429,3022.2948819201747,8252.435453286826,-2231.6922572064495,3477.832262080159,15859.79099092618,-149.13513289235135,3037.174129938835,8239.97640451411,-2117.2585782544857,3626.612211963157,16112.380494759425,-114.06591460831473,3022.206012232467,8266.76307208019,-2086.224077694423,3451.0319182985913,16268.889371868412,-135.76151780543796,3018.827872678979,8250.122973968402,-2037.137830811112,3655.739492398571,16068.776851274917,-115.23723992563069,3010.6334089612405,8260.58303857788,-2316.92504645735,3615.7071310448055,16111.878696654505,-126.93557364214605,3010.816229359166,8235.038004955419,-1912.7812768014323,3548.3946041846616,16107.960069129784,-131.03935857110352,3018.660382803338,8249.732895280933,-2004.120194271106,3706.873467277374,15979.740923874178,-109.68490655378967,3012.5107236343965,8241.526173729946,-1979.502588271678,3478.213257592094,16250.958005885708,-134.7279196651067,3030.6597543255557,8245.77001435286
-840.0,4180.0,16168.0,3240.0,3647.0,11522.0,-915.2361269328935,4343.256734686653,16305.235762635166,3242.287297394163,3648.820087146487,11516.129964850945,-813.1625393144922,4197.974384738471,16139.346282176431,3241.067894468369,3654.9377551224857,11528.990765880804,-758.2961410080529,4180.876840236671,16359.99160267345,3228.9099640121854,3632.725165020301,11521.642999774851,-1044.2003735901824,4294.319530035366,16299.011469938618,3242.908996194017,3644.2284204898137,11507.773805903606,-932.4262976152762,4172.168184518004,16239.13656901777,3239.656010992288,3640.6242311598353,11528.208079042155,-942.2605335257304,4084.801257432605,16221.180422154977,3230.7656857118404,3652.4032721312483,11531.075204431774,-959.0984880540566,4198.718562383264,15940.464592756054,3247.0527578822575,3639.7247996605574,11537.962819778038,-653.6932632429839,4187.626377467042,16147.288454127796,3229.096069272891,3648.9718701783468,11505.381898442189,-1044.245285463715,4076.3204296348945,16230.79766194848,3217.1443244703005,3631.603257107219,11513.30064972443,-909.3082553335647,4244.00379903265,16112.95639153241,3230.909520642406,3642.814257696646,11513.892329502149,-880.4983531675771,4152.406008398958,16121.36575947541,3241.4009527430835,3635.9366823473215,11517.326977422556
-6944.0,-7284.0,26216.0,673.0,-1142.0,7340.0,-7153.879381461626,-7321.628007407696,26237.52464086719,687.7993194886279,-1156.2742674789833,7346.089320844438,-7032.990645183294,-7371.060236148174,26129.007767035975,660.5005150281015,-1141.6229625387066,7353.304887705096,-6879.523855326516,-7389.141192539029,26302.463149837615,674.1693879858726,-1138.671091853216,7340.041268764356,-6934.73826190578,-7207.627885345759,26278.16825234778,671.0917381182911,-1162.9107798367395,7323.170432307559,-7073.609744248977,-7430.142985061436,26304.512376434966,664.050211873653,-1145.3535692972682,7332.909361275285,-7036.628770225106,-7328.890637680697,26222.782823787842,674.947765830226,-1139.2666834998731,7344.520214224706,-6970.938111918601,-7321.723011199022,26236.27084835693,673.8156330319995,-1153.167628846146,7350.416147331782,-7090.420468921041,-7183.515620071353,26083.23623091283,667.5767455568221,-1157.6191464967487,7341.924403579346,-6962.499610063113,-7137.934851522306,26200.74452521781,668.6327282376255,-1129.8491170497412,7340.668787602075,-6900.953798402501,-7279.97641330909,26253.085364581973,667.9046600210272,-1167.3741894316072,7328.604151933737,-7005.133412963576,-7350.833038684817,26291.074858445434,660.6219508760427,-1155.7172385149845,7344.519014908971
-6912.0,3408.0,22688.0,7246.0,-3817.0,5139.0,-6850.087297371975,3490.5313556655115,22720.43139969097,7243.991999303622,-3816.3491606391344,5140.720037858388,-7106.3054415973265,3263.2216058633117,22709.786018613344,7227.906718645846,-3813.4642256368634,5129.447532834917,-7001.30405742098,3503.5648600343366,22871.04385140538,7244.88455595537,-3813.496116854625,5144.937198956162,-6890.555688977421,3200.6019658475257,22522.775533976805,7237.520222858669,-3825.115866294049,5130.146797263585,-6950.528791452816,3418.8957164176977,22537.15090989935,7235.395601450312,-3811.1266892841554,5133.553156920032,-6843.594247943527,3371.102012466824,22620.5379583868,7248.16255889872,-3830.66262799717,5142.26440802441,-6912.621047136935,3410.0441568929114,22570.61463595793,7239.275231060243,-3818.552714286101,5145.128771927828,-6852.689257295706,3346.042660416338,22677.945404126862,7254.272897742956,-3805.806350157864,5146.187387123549,-6667.874145392241,3437.343684545459,22716.678971567286,7241.406992109047,-3824.263570702166,5144.4311603846,-6834.57211784686,3438.568131192975,22763.892720710774,7242.985624634287,-3817.848905401669,5148.471819496266,-7056.531989311525,3420.142049191585,22544.41502685254,7231.495261124038,-3828.113370404161,5142.610874316889
-3920.0,1336.0,20640.0,9299.0,-6427.0,6770.0,-3946.084968688342,1468.0694937133073,20549.33028867948,9312.665958645286,-6427.9445441292255,6780.228051802232,-4027.493363974997,1424.592908472778,20739.854376411346,9305.271004340146,-6441.190653476782,6761.359772467767,-4146.647424173017,1215.7222790677565,20477.391507148706,9302.942631493393,-6421.893241917789,6760.889076560864,-4143.03073261724,1328.7619567530433,20533.583885051474,9305.861895006616,-6436.455374943021,6760.99118849244,-4036.975117703523,1315.3198949204611,20476.568720838626,9305.763629312323,-6430.553393927852,6758.517966969106,-3940.5886840752446,1412.1924846326333,20679.519632005933,9282.409338477479,-6424.191600962673,6756.211144483294,-3670.0574544752167,1282.5336603427932,20734.335843887522,9296.399415211805,-6424.430583557587,6761.81726815723,-4161.942496272867,1115.0555018955836,20589.937002768653,9289.127087519259,-6420.002345574301,6766.038369333135,-3860.0769807609277,1271.9441164993889,20598.014365385956,9297.617511827237,-6408.908620071867,6775.67768407029,-3918.5147704121787,1322.0063099062902,20643.17088123768,9290.011084532873,-6420.4809942546835,6767.4368571957575,-3850.4723811863632,1300.8915466057958,20556.7132179111,9298.33258885462,-6406.76990393638,6770.375533519288
-2060.0,1860.0,19816.0,8082.0,-6786.0,8269.0,-2237.053414818855,1881.729757131047,19961.03191356572,8072.069379627041,-6795.159288775808,8275.253865794808,-1953.3712410464232,1906.856506025836,19683.851876536242,8092.365368265103,-6781.657614545731,8273.417672940104,-2186.4411105104887,1831.6904499136324,19841.300686599316,8078.974997873916,-6791.066244605391,8296.595430253477,-2063.8519563307864,1754.7050764605142,19857.56571568334,8081.2249876132355,-6772.2071267505125,8260.85730741973,-2110.2031902632043,2025.8148075729907,19922.91959698927,8079.443233635567,-6776.781474541805,8269.002345440882,-2129.3057539258884,2012.8061705719315,19851.090777623493,8075.650183514708,-6768.873569089696,8275.256786401544,-2068.796379576787,1793.1042820556725,19822.790573646223,8063.789715853938,-6801.2591577667345,8273.432820630025,-2013.947129697854,1981.4601107927758,19794.604036417215,8093.113782583681,-6776.61271679025,8271.914599984577,-2111.40454281022,1782.310202594555,19723.47680475494,8075.389168672534,-6799.813018554047,8270.169827168733,-1999.3815018450405,1700.8387536046052,19722.022452106383,8086.5220397441535,-6800.4055642503945,8253.675582173086,-2008.229640280274,1777.1619583879806,19919.12406158081,8088.029095697399,-6779.008954543684,8256.472655088288
-2160.0,1320.0,18216.0,6889.0,-3889.0,10750.0,-2169.024730299763,1361.0057060822355,18250.928571868008,6903.115717793306,-3894.8334104781147,10740.86060623929,-2073.57984566749,1539.9694582794161,18290.602392208864,6897.671674997444,-3900.676940130584,10754.886549936005,-2159.41884193902,1337.6457574674707,18050.45254077161,6889.080902945957,-3865.635760855539,10754.081094580122,-2265.5866520564327,1378.1222296861465,18282.785790519065,6896.840008655615,-3880.887245119974,10755.714010380894,-2196.3018232007353,1360.728002327738,18243.882984193977,6895.2199574371725,-3878.3226349202027,10754.728166803912,-2241.0357752079663,1712.1250704175688,18199.73950994013,6890.549392154084,-3868.1215300343165,10745.203304239523,-2027.4736213116137,1409.638050592021,18178.278308149944,6880.911564299348,-3909.8216050208953,10732.56163650399,-2292.313230806134,1284.6550536423913,18230.62238497033,6871.296218344897,-3891.287889613655,10739.356352458572,-2055.4289856028927,1181.196400790202,18043.621203660463,6869.743351558797,-3895.1141469841655,10776.566845360032,-2182.499678758447,1314.6353268803932,18346.97373098989,6892.84991608767,-3892.363771920326,10756.534542147652,-2096.845471755189,1172.0886379123826,18315.3594158564,6886.3764220094145,-3884.3997326653107,10744.150673704922
-3200.0,1388.0,17984.0,4734.0,-2594.0,12355.0,-3183.7918482152304,1492.3600059355754,17877.61563794841,4713.543314447256,-2596.7655747212148,12335.187507292361,-3147.024901166431,1562.6748522952282,18001.42608226855,4733.634326962995,-2577.2558881649866,12341.669322953285,-3454.4005701062288,1234.447560944213,18017.581176330954,4732.388587433287,-2608.4227738572413,12339.680113683102,-3128.8263616475774,1576.7106565906745,18015.942651912163,4728.751552824204,-2595.6271202642474,12361.682485766954,-3366.545706350486,1525.9126365644343,17992.82118846251,4727.443808529963,-2596.1342284896346,12353.462643178225,-3184.060321819606,1339.9004033463236,18077.094697556837,4752.007170220551,-2592.4576982695407,12367.504850718227,-3317.6861298652375,1185.0136510583538,18014.11189265718,4727.784214138398,-2598.5772267821762,12358.406963117883,-3096.284667839533,1211.5475296586203,18081.291777780683,4745.131521384811,-2603.8565260339624,12350.82847751513,-3219.1916970846178,1314.5195240948915,18009.601015067823,4722.9525640559195,-2610.5959921390954,12380.28061346101,-3058.254539355442,1380.8321895768322,17941.69014456237,4712.150478146819,-2596.9893477803266,12346.717419433871,-3175.5115315308008,1502.605333170586,18024.154495046347,4738.400386840462,-2596.059545889496,12349.643583681864
-2652.0,-352.0,9060.0,-1604.0,4402.0,12446.0,-2669.0108862326233,-234.59403624133563,9039.199116596681,-1617.2261882304304,4395.649459139524,12439.64106361562,-2677.170545879703,-293.1265991704927,9180.791076655725,-1579.4539539186298,4404.856112633762,12435.86330322052,-2816.8545749700043,-262.85995262944135,9167.34702947583,-1591.959387863429,4400.118350363113,12437.37175058777,-2541.536139473488,-359.2966497546664,9080.852775610845,-1606.07266225014,4418.6010121841555,12445.918814841894,-2453.6409951374817,-293.1468255717145,9057.76200037706,-1604.423501257435,4404.766124322958,12445.643050019013,-2646.217914422884,-266.5904971326893,9002.701500722122,-1613.7426992895278,4392.213905944785,12444.87625375505,-2528.473146891985,-490.1554668040363,8969.138703131897,-1611.1060108755971,4401.924048081367,12440.467815764689,-2902.8175775894606,-404.81095666255226,9101.14802359997,-1593.8969259080393,4409.569190369973,12429.901714130105,-2510.181899102797,-236.69704533596502,9206.015478115987,-1622.7040605420257,4393.166672834676,12446.268789264712,-2557.776377848055,-234.74275714612168,9171.100111032792,-1603.2627605605069,4395.827267404011,12457.019047862375,-2689.9919326098725,-429.62957626123335,9090.555033426659,-1590.2985885538974,4407.982010627121,12420.364868699498
-24.0,-3200.0,6508.0,-3887.0,7307.0,4072.0,-73.04059232616655,-3259.859538502372,6514.725485836506,-3882.6454464800877,7311.8177841535935,4074.096310142593,-70.86786330137147,-3215.9398321286417,6498.857845700175,-3882.8204035638973,7311.40282647055,4066.550099217832,3.50613501867128,-3239.8299439786356,6478.196695923766,-3881.9911418292427,7292.239221790766,4083.0043194323766,93.86192717906563,-3338.5142727053535,6636.02418307351,-3872.277029282459,7297.669451216137,4062.1738376274075,-19.405776887821894,-3094.980158328351,6571.301997173925,-3880.5465029274346,7306.942864710071,4092.789672834147,-20.274658199168666,-3193.091424559922,6538.441957207751,-3890.443690808288,7300.781342967616,4069.5686414817665,-46.72434114305702,-3162.9183969030573,6645.048179446092,-3883.78989156282,7306.108175162726,4089.674819640929,-167.3430062489782,-3103.6607653791284,6574.166518495283,-3881.2153327119204,7289.074023253709,4072.740839365705,51.978706875522334,-3197.2370736134903,6290.486162048077,-3890.7932958162282,7309.1810619983435,4074.8997218215727,43.903257917494926,-3086.2804828610087,6554.807403470928,-3877.1262310576367,7300.989403681661,4076.8102168969617,-344.29935982540223,-3171.315501646875,6592.637165179035,-3882.836807025078,7317.101835558865,4057.1134643662076
2888.0,4876.0,6288.0,-5571.0,9508.0,4986.0,2781.2459836813437,4799.60540922343,6399.005983864946,-5555.524841973025,9499.918131057102,4986.211043440104,2873.7965321307547,4903.2505835772,6380.890867852446,-5562.757418525289,9493.846141982427,4975.462941215445,3072.5390190901617,4773.026953299863,6250.112555716279,-5566.322234800641,9514.948776367246,4984.505079458107,2713.645384908342,4964.436535448268,6148.038345486468,-5572.837167143803,9513.534923417963,4997.570970206604,2855.907714377528,4874.265480311431,6174.129289829101,-5572.577446070645,9498.61577239466,4988.556418453437,2937.373350598916,5015.4501599306595,6332.0749749492625,-5577.449100936333,9486.087221222497,4972.459419314853,2707.3286855091537,5023.044659884977,6421.853976660518,-5555.144326840091,9502.950290871251,4983.759905165742,2771.091584953055,4910.236482982408,6203.714891315214,-5576.912649491697,9511.225171295262,4982.515253545557,2966.9831921085292,4839.948617894574,6058.019390235739,-5589.11483375058,9512.38284161991,4978.76148481955,2938.179074426109,4818.9890203013,6259.667512091926,-5577.803814435943,9520.585811348792,4980.674254176722,2743.3325465937182,4792.237102443484,6146.763222655004,-5567.124636099094,9513.462231246454,4978.808927343947
-348.0,1252.0,9648.0,-1609.0,1160.0,8324.0,-341.64799395894426,1331.6733535859034,9581.42615787008,-1600.9890843378507,1151.5964629576595,8330.230937816528,-373.0605624115375,1064.7513003397105,9517.711572116845,-1599.5459261390756,1159.434834611212,8313.196834874687,-357.52543374264695,1207.0074407382126,9663.263503189235,-1601.913749751353,1161.064031280922,8329.537309127254,-443.15932894705537,1358.6442020142383,9599.53703953143,-1589.0125764968238,1174.11668178937,8306.844856794476,-179.911744016728,1408.3662242555754,9478.429585295366,-1590.7141001423972,1170.615299057788,8326.53090386658,-289.4880875650341,1131.288659770742,9606.292334593192,-1599.837884081808,1157.5242649813563,8319.431260686213,-470.96391082078156,1232.3883613572818,9669.392724592448,-1602.9606979958596,1154.6067102356371,8330.64338687196,-210.59814431252772,1210.0349774330691,9597.531349386178,-1600.1420951602304,1162.1309693767298,8309.249246187544,-249.47966496549333,1439.9356775998954,9754.373229154557,-1600.2558837838435,1141.6931944616908,8325.248422143497,-268.99733417813326,1324.4690072336236,9645.025235043155,-1598.3969700198484,1154.1792394308234,8325.764706897922,-378.8506927052495,1220.104779198902,9612.915988564113,-1605.0099954990765,1175.8125571596229,8328.860425833804
-1628.0,-124.0,16524.0,608.0,-12990.0,7507.0,-1678.8815026145105,-105.3939933264319,16761.83636789089,590.752033676949,-12976.723592561497,7491.4047827469685,-1679.7718636423,-148.6813876889838,16473.03765985488,604.4613438092983,-12985.068051203765,7508.370374018282,-1832.717680209998,-10.87734952241324,16576.07033193032,592.9656810104354,-12976.703883027492,7500.455747736406,-1829.4122616589852,-151.03904356369497,16620.739146168875,590.3677130902742,-13003.416017348718,7501.4005289678735,-1490.0636265730705,-71.60088689651724,16474.377523025916,616.6816593324427,-12983.896610897858,7512.475509127023,-1568.6873173572362,-241.04448634627323,16459.4162302067,603.6204896125078,-12973.267489556529,7503.856534257298,-1642.0659638457294,-188.60340584720385,16556.889557991657,603.9270448111557,-13003.037491874351,7505.346292778834,-1686.301843833371,13.925777174018407,16590.082493874375,625.4601292445407,-12977.68206410894,7513.191901462256,-1491.3737336955592,-124.27123845508169,16544.13356490613,633.9113996620371,-12988.4218257356,7510.967645556208,-1688.9222658180652,-212.9307782652633,16467.74399716676,618.5148288317223,-12986.189959170317,7492.350074826498,-1730.070075907561,-106.5103155218161,16402.14219531445,613.1910788616533,-13000.2544737668,7498.225536604803
-272.0,-6372.0,6392.0,-8852.0,-7787.0,918.0,-311.035494902143,-6242.916528516001,6321.664535587816,-8845.879360382,-7792.034286827774,918.5583803095757,-199.01079095587582,-6490.581508917065,6171.104565666903,-8858.97473875435,-7777.333536413957,936.6220079404277,-341.91427725705853,-6422.959369920389,6411.405100458062,-8852.005846930057,-7800.767404720055,899.4977348157496,-299.41195967275866,-6570.28406882812,6679.408139655263,-8854.480977730847,-7792.854052393144,932.3637039176682,-184.07269742168023,-6245.476315928837,6456.954654036372,-8849.551294964205,-7768.401326561898,914.8375430097185,-275.83671541437093,-6310.581849450503,6311.052045053106,-8851.67237819599,-7797.5605157523205,933.4075967892561,-246.2386647924427,-6434.015227525524,6301.766705135452,-8839.928622257532,-7792.351692626697,914.1641444668214,-196.75222658994784,-6444.7966169219635,6417.1925041734885,-8866.290174637592,-7812.102118909651,928.3330261776487,-165.13860961936064,-6306.615353987838,6439.476065033204,-8838.8782174774,-7790.4851129210165,897.86060668584,-235.70775981364574,-6445.90349242037,6437.205164277712,-8852.241975563216,-7784.0489867895785,926.2212666787466,-389.5205657935593,-6266.697038301909,6339.407823652682,-8863.89353100139,-7802.8946235964595,921.3002051713419
-5056.0,464.0,30604.0,-12581.0,9697.0,1252.0,-4917.2721409096785,446.0456947495066,30650.708429090882,-12584.775561574519,9700.621570037154,1250.4692584214924,-4961.6930585547325,526.1869452350804,30547.788547205517,-12581.052039962762,9698.15641819781,1239.4595074769054,-4988.953708104716,373.1481321590659,30564.235061646617,-12571.983674502308,9700.277977652642,1235.384563052203,-4969.878718847484,484.7278928933275,30453.84211383905,-12585.372309258984,9693.518982115327,1240.8408229009822,-5227.23810628175,439.6978028956076,30538.638753211744,-12566.461233505166,9699.775789410149,1252.4361212781798,-5037.164324270891,504.766176837835,30473.784046866524,-12589.406351648073,9688.118126812404,1234.5492344681463,-5118.242716137015,424.46524646913684,30711.61849389457,-12568.947864885225,9689.424838955707,1263.3737770094126,-5005.338360619248,204.16463904788395,30822.85048857886,-12575.765887604975,9706.375921663757,1258.1334329582671,-5061.11698004849,306.0101644913615,30673.08251235585,-12568.852453857777,9694.392912466386,1243.4616490136475,-5140.429388787094,558.3585641768905,30561.09334080334,-12570.824292776,9693.237776848016,1240.6115839985014,-5218.4429566551935,514.9420154144652,30761.55280119267,-12589.557791433062,9701.784616976853,1240.750417802144
-1340.0,2068.0,25332.0,-1792.0,2523.0,306.0,-1280.4715550276037,2047.1476282152648,25471.358626087174,-1784.1239202800589,2500.751488906129,315.3043414314719,-1422.3717623144619,1985.0238774360105,25339.810604592552,-1791.5991932446752,2513.6481943422364,320.1153203191078,-1284.7808564901618,1895.8283561199862,25253.81901499238,-1783.0544941302223,2521.1594444919438,295.99284674995295,-1217.8051064782396,2131.934407345263,25243.367467373926,-1779.6334659465913,2537.7721385051545,308.2639267501552,-1313.9062064297539,1829.3875151465313,25508.477450604634,-1813.5168469860112,2516.3005116742465,312.1314580114811,-1415.077418577752,2200.3418132317975,25283.552238753673,-1797.5694337330904,2518.2640511342925,330.0768217840035,-1369.5266750647104,2170.664576697336,25251.781307486403,-1787.6946219497534,2517.0874769286147,314.38276439615385,-1370.4001724311,2142.507440568011,25474.642961775557,-1788.2758452479477,2514.292335118819,312.29655536830916,-1358.511124826766,2091.7662411424917,25226.425653462553,-1791.1247585472938,2510.8384944427585,321.6745904462722,-1169.9212917304606,2039.3738054905775,25440.579507551938,-1791.6970080760902,2512.524004892259,303.31550315823154,-1451.308681714233,1949.6104213753924,25319.758206466307,-1790.4069774107363,2521.5501766019006,296.01532556886417
-2548.0,-580.0,27788.0,4025.0,-3393.0,-547.0,-2819.2232927588284,-747.1478320475502,27714.9889955396,4024.084388491305,-3382.21640026075,-530.2672249766584,-2578.455079867193,-473.41718240631053,27956.360905665304,4013.8953673951005,-3393.0925423398635,-556.1187638349127,-2537.212325365795,-790.7890189929916,27642.955869660465,4026.012053034782,-3396.7254820200424,-541.2611351910933,-2478.1847309786795,-609.2293004261651,27725.678771839084,4004.2822734298265,-3399.525502908871,-559.2138823428535,-2485.736784309777,-576.1587698378272,27862.32376546993,4013.7572902999336,-3379.060444361944,-536.2743439080539,-2529.89774778238,-667.5547880281933,27744.72639072454,4034.794973778901,-3402.148008633698,-536.8098642480145,-2592.9780531476194,-692.3748678053577,27674.706990596227,4021.150118585972,-3408.0634400868294,-530.8986152416419,-2606.509141989138,-450.73772262678847,27690.33890103129,4014.864818426519,-3401.1074396378117,-555.7521212617987,-2520.8497410782124,-609.1279731910269,27803.325916730566,4029.8847137249873,-3394.1077622835874,-552.6477195953076,-2434.5858591952447,-476.5937931626321,27609.669381289867,4026.8028239530986,-3390.172081948639,-550.5213049670339,-2447.6978173282328,-630.895317908206,27810.380663359716,4033.1707918280285,-3392.515525002975,-529.3272148867957
152.0,-1840.0,19072.0,3444.0,-1647.0,-1970.0,140.51000818969226,-1852.902966578195,19312.608370601094,3464.374914112345,-1657.5794941518918,-1966.510819738273,161.8871121083484,-1828.238060631009,19102.96502632023,3451.7915338134717,-1630.4213429888864,-1949.8069127207461,308.16198719691795,-1888.8445439863578,18966.120198097484,3445.918347228516,-1651.1171987676694,-1960.7851496481173,188.81797042081035,-1744.2782848644758,19259.39459330271,3423.037689194497,-1635.9863460236788,-1973.1897717771599,68.07063650915298,-1799.2987259540598,18951.68845872702,3443.2067700097673,-1651.2575177293377,-1964.995825734727,266.34831127013877,-1903.7286417915107,19072.85869190848,3440.112626869415,-1639.2931812399688,-1961.4430768509064,187.0511317103157,-2044.957349250988,19229.488238019563,3425.549796715163,-1665.4128340657865,-1977.6917474319514,-6.487704124748404,-1895.726221257486,18950.25050715387,3447.9185183535983,-1643.1787734937716,-1968.2079313850281,259.79765347904856,-1843.963986224027,19003.043722873546,3446.484746352369,-1638.1795719705951,-1962.587078698185,124.4842307910744,-1809.5354795023534,19285.064138163645,3445.421737737886,-1648.5454414019234,-1983.3492379141958,156.58224493999785,-1874.3445377325709,19102.465435405054,3428.0098429219734,-1632.7971829204928,-1970.9551945647293
-372.0,-2120.0,16752.0,1189.0,-3386.0,-3666.0,-282.34027622158266,-2035.8084429350363,16687.818451538693,1190.7488572940624,-3388.131503368819,-3651.0524485111114,-297.0264208969111,-2046.6651697078848,16675.868691165182,1198.1070107602393,-3383.7548166868037,-3683.694848167343,-532.6191410631805,-2127.0254481945963,16740.553122529207,1182.815732530906,-3380.9493231783567,-3663.261079680901,-419.7952094560508,-2169.1753864704724,16775.116401157175,1189.3660632225753,-3366.7157016039405,-3653.752159330622,-340.4783873356249,-1939.7515084751053,16843.924805860235,1177.6526234005312,-3378.845035124102,-3668.2541750537926,-289.8816297075751,-2208.422290729162,16694.5268793692,1197.0761650238226,-3373.2373075578307,-3664.071788682718,-471.97759158553134,-2095.893677293982,16780.112290985944,1184.298985808034,-3405.76876129448,-3679.0981120192514,-331.86127758319986,-2269.779345172989,16653.64584064581,1186.7875944934794,-3378.8699486852283,-3664.6399541854025,-319.44615077120864,-2049.08339971445,16660.109621381725,1176.1088420922447,-3397.1667414645044,-3665.1565549151305,-371.40108772215655,-1956.3938587172752,16519.392614067485,1201.5986570562563,-3375.9079804948165,-3663.997642705193,-330.18025427531336,-2145.38766318969,16752.364411234743,1181.7715575900656,-3384.815148024001,-3663.019492696384
